%time,field.header.seq,field.header.stamp,field.orientation.x,field.orientation.y,field.orientation.z,field.orientation.w,field.angular_velocity.x,field.angular_velocity.y,field.angular_velocity.z,field.linear_acceleration.x,field.linear_acceleration.y,field.linear_acceleration.z
1609060339254627179,26696,1609060339254627179,0.0140979209095,-0.0357803388852,0.36276550183,0.931086573127,-0.000541961868294,0.00151536904741,-0.00241869571619,0.759560637496,0.00763929758035,9.79639311612
1609060339257175055,26697,1609060339257175055,0.0140997999065,-0.0357797617718,0.362761670828,0.93108805946,0.000673471367918,0.00186334329192,-0.00308634433895,0.761994863883,0.00850571714155,9.79626576376
1609060339259528747,26698,1609060339259528747,0.0141009855745,-0.0357774707675,0.362757042082,0.931089932934,0.000824937887955,0.00237584067509,-0.00555110443383,0.764720379576,0.0097429116983,9.7953258099
1609060339261213790,26699,1609060339261213790,0.0141007316644,-0.0357767651358,0.362753837654,0.931091212347,5.98929473199e-05,0.00273408577777,-0.00525023695081,0.767473278947,0.0110119945477,9.79415743965
1609060339264595549,26700,1609060339264595549,0.0140989012421,-0.0357783830569,0.362752661934,0.931091635957,-0.000622447871137,0.00246848049574,-0.00518095167354,0.769386923365,0.012203604409,9.79244285631
1609060339266887342,26701,1609060339266887342,0.0140991572078,-0.0357790061705,0.362748947658,0.931093055208,-0.000633388117421,0.00189847568981,-0.0053952280432,0.771009643592,0.0130901144617,9.79092339081
1609060339270799767,26702,1609060339270799767,0.014104218121,-0.03577645532,0.362743211524,0.931095311324,0.00105673121288,0.00206831260584,-0.00570985861123,0.771832030199,0.0136764994073,9.78897922271
1609060339275125040,26703,1609060339275125040,0.0141043051002,-0.0357761893982,0.362740304711,0.931096452677,0.00113667687401,0.00242433976382,-0.00536520872265,0.772007066667,0.0138429191443,9.78772672981
1609060339275341354,26704,1609060339275341354,0.0141025778791,-0.0357744083933,0.36273630439,0.931098105722,8.80336156115e-05,0.00287821213715,-0.00499126361683,0.77144048012,0.0140655028042,9.78578898776
1609060339275560330,26705,1609060339275560330,0.0141049234759,-0.035772078111,0.362729704841,0.931100730742,0.00116738653742,0.00331951957196,-0.0066293515265,0.770466205381,0.0138019714183,9.78480755675
1609060339277713602,26706,1609060339277713602,0.0141071805609,-0.0357720270333,0.362724173177,0.931102853465,0.00105511385482,0.00269873254001,-0.00665715150535,0.768479975961,0.0130893568466,9.7833722139
1609060339281830147,26707,1609060339281830147,0.0141079765452,-0.0357710008767,0.36272129801,0.931104000885,0.000350169284502,0.00243839202449,-0.00502605503425,0.765988280363,0.0119996370859,9.78206772852
1609060339284478864,26708,1609060339284478864,0.0141074204443,-0.0357731130596,0.362723760303,0.931102968947,8.5199251771e-05,0.00154706113972,-0.00276462966576,0.762974177219,0.0105266097332,9.78121014476
1609060339285370725,26709,1609060339285370725,0.0141098622438,-0.0357716719528,0.362722198726,0.931103595646,0.000780146976467,0.00146292988211,-0.00223260931671,0.760054273926,0.00868979022279,9.78067152607
1609060339292317310,26710,1609060339292317310,0.0141118117304,-0.0357672493561,0.36271781632,0.931105443206,0.00157936231699,0.00304855476134,-0.00250448449515,0.756657821618,0.00580936962878,9.78046414036
1609060339293807351,26711,1609060339293807351,0.0141141728739,-0.0357661248729,0.362721472891,0.931104026164,0.00158965052105,0.00294211460277,-0.000257474021055,0.754458072536,0.00370131935505,9.78054534209
1609060339294720873,26712,1609060339294720873,0.0141144734574,-0.0357687094225,0.362721370755,0.931103962113,0.00126455561258,0.00189671292901,-0.000102566787973,0.751456821464,-6.26949300058e-05,9.78070365626
1609060339296954874,26713,1609060339296954874,0.0141142404228,-0.0357691429733,0.362721267705,0.931103989135,1.04749633465e-05,0.00169321219437,-0.00166100845672,0.749039682493,-0.00312774997065,9.78096712375
1609060339299482560,26714,1609060339299482560,0.014115920732,-0.0357677882548,0.362719384555,0.931104749302,0.000166970625287,0.00163367262576,-0.00135239353403,0.747395639509,-0.00530007886374,9.78133048689
1609060339304324990,26715,1609060339304324990,0.0141171050093,-0.0357695497456,0.362721075933,0.931104004788,0.000532453064807,0.000933115486987,-0.000578383856919,0.745538441978,-0.00768507852545,9.78131120878
1609060339304521869,26716,1609060339304521869,0.014119105202,-0.0357715307851,0.362725046849,0.931102351432,-0.00013190881873,8.4794126451e-05,4.25450853072e-05,0.744050595492,-0.0104970810008,9.78102203715
1609060339307027620,26717,1609060339307027620,0.014120330729,-0.0357718962158,0.362727996505,0.931101169719,0.000107004321762,0.000598632730544,0.000560059328564,0.743288891114,-0.0122973798132,9.78021352494
1609060339310812767,26718,1609060339310812767,0.0141207439184,-0.0357701066551,0.362729356606,0.93110070235,0.000418075738708,0.0015947651118,0.000744548044167,0.74289953173,-0.0138003603453,9.77936937743
1609060339312379054,26719,1609060339312379054,0.014121750966,-0.0357719397215,0.362729655051,0.931100500389,8.08798358776e-05,0.00107936304994,-0.000369433575543,0.742625914022,-0.0148032145165,9.77830849725
1609060339313248807,26720,1609060339313248807,0.0141218948432,-0.0357718625025,0.362730628349,0.931100122004,0.00015086089843,0.00201136455871,-0.000839483051095,0.742688859969,-0.0160788192451,9.77756658214
1609060339322075206,26721,1609060339322075206,0.0141207067363,-0.0357714598535,0.362734090327,0.931098806796,-0.000291007338092,0.00316500198096,0.000519729161169,0.742868642941,-0.0169555898365,9.77664415383
1609060339324162535,26722,1609060339324162535,0.0141204108714,-0.0357719974321,0.362738785114,0.931096961637,-0.000884060107637,0.00244965055026,0.00105423177592,0.743215867974,-0.0175280912574,9.77654425818
1609060339324794230,26723,1609060339324794230,0.0141192452107,-0.0357717352377,0.362742324499,0.931095610499,-0.00089406321058,0.00239372090437,0.00107679958455,0.743465022929,-0.0177637232398,9.77646772993
1609060339325195775,26724,1609060339325195775,0.0141205771824,-0.0357722193022,0.362743236643,0.931095216342,-0.000732576532755,0.00218820734881,0.00107510806993,0.743975308634,-0.0176657992085,9.77730253047
1609060339325672211,26725,1609060339325672211,0.0141193191066,-0.0357719650704,0.362744334199,0.931094817593,-0.000807797827292,0.00219836179167,4.38152928837e-05,0.744288358837,-0.0172434972594,9.77797726429
1609060339333259506,26726,1609060339333259506,0.014117633301,-0.0357727074673,0.362748689843,0.93109311771,-0.00131999189034,0.00219168607146,0.000636431330349,0.744973169848,-0.0161375526697,9.77939975506
1609060339333674668,26727,1609060339333674668,0.0141169553304,-0.0357723803488,0.36275215437,0.93109179079,-0.00105422746856,0.00213429401629,0.00163417251315,0.745299656309,-0.0150746460934,9.78022812957
1609060339334612471,26728,1609060339334612471,0.0141157901003,-0.0357709210017,0.362754065246,0.931091120046,-0.000949810142629,0.00301015959121,0.000320748775266,0.745942186922,-0.012922987313,9.78179841918
1609060339335419361,26729,1609060339335419361,0.0141148327883,-0.0357696558155,0.362760898475,0.931088520902,-0.00086258596275,0.00340199307539,0.00175496283919,0.746199009307,-0.0108539952915,9.78310348874
1609060339340009656,26730,1609060339340009656,0.0141126195758,-0.0357711899603,0.362761239652,0.931088362587,-0.00122661027126,0.00284792738967,0.00128592911642,0.747114135303,-0.0087617453998,9.78451312745
1609060339342309871,26731,1609060339342309871,0.0141116104966,-0.0357709556518,0.362760421217,0.931088705752,-0.00152042205445,0.00246934429742,-0.00197307439521,0.748246797234,-0.00633204188431,9.7856733191
1609060339344507644,26732,1609060339344507644,0.0141130903013,-0.0357698442145,0.362759213161,0.93108919669,-0.000116894836538,0.00242716632783,-0.0021657817997,0.750040610678,-0.00367898340197,9.78632176459
1609060339347013385,26733,1609060339347013385,0.0141103142361,-0.0357724143652,0.36275685351,0.931090059357,-0.00120633433107,0.00163661269471,-0.00278417440131,0.752158427797,-0.000680680639576,9.78660626274
1609060339350937248,26734,1609060339350937248,0.0141064632074,-0.0357737944161,0.36276175892,0.931088153503,-0.00275968760252,0.00135444686748,-0.00229540280998,0.754478372969,0.00233544433303,9.78695502126
1609060339352564350,26735,1609060339352564350,0.0141076568016,-0.0357722015283,0.362764358961,0.931087183611,-0.000595840800088,0.00233244383708,-0.00026244687615,0.756382597402,0.00443663499551,9.78721848875
1609060339354594226,26736,1609060339354594226,0.0141086101402,-0.035770064923,0.36275900444,0.931089337429,-0.000341720238794,0.00262038898654,-0.00307893776335,0.759418315396,0.0074948304249,9.78786927098
1609060339356947409,26737,1609060339356947409,0.0141061521933,-0.0357702852317,0.36275349348,0.931091513296,-0.00209807162173,0.00247398181818,-0.00649095652625,0.762061168894,0.0098769593644,9.78846280307
1609060339359538259,26738,1609060339359538259,0.0141038422066,-0.035771892861,0.362751395093,0.931092304057,-0.0012654941529,0.00271965120919,-0.00527148973197,0.764711689822,0.0121381163439,9.78885128617
1609060339361997364,26739,1609060339361997364,0.0141032592451,-0.0357707420042,0.362744795262,0.931094928353,-0.000386583735235,0.00295809679665,-0.00578270852566,0.767242233731,0.0140219627568,9.78941794574
1609060339364310620,26740,1609060339364310620,0.0141020029132,-0.0357711981507,0.362745094689,0.931094813204,-0.00146416411735,0.00265064067207,-0.00555101409554,0.769323174164,0.0156720894808,9.78928416735
1609060339367714610,26741,1609060339367714610,0.0140998155819,-0.0357736811504,0.362742271679,0.931095850745,-0.00252582505345,0.00152914784849,-0.00387095147744,0.770458757021,0.0164882006622,9.7895569818
1609060339370838506,26742,1609060339370838506,0.0141004593795,-0.0357724703934,0.362738897401,0.931097202079,-0.00127468991559,0.00179001502693,-0.00455241883174,0.771158975914,0.0173868690678,9.78941093552
1609060339372601705,26743,1609060339372601705,0.0141011766815,-0.0357715013406,0.362734673693,0.931098873917,0.00028576925979,0.00265485607088,-0.00521378032863,0.77111143785,0.0172535333773,9.78935894305
1609060339374689821,26744,1609060339374689821,0.0141004327209,-0.0357719585592,0.362728183952,0.931101395845,-0.000328838767018,0.00183941586874,-0.00585331022739,0.770228807151,0.0162563430634,9.78817947328
1609060339376077927,26745,1609060339376077927,0.0141011534392,-0.0357717024134,0.362729054924,0.931101055467,-0.000347084656823,0.0015733379405,-0.00367055204697,0.768885181367,0.0148340348457,9.78747611439
1609060339379538724,26746,1609060339379538724,0.014101484067,-0.0357720070635,0.362727332026,0.931101709943,0.000534400634933,0.00193066964857,-0.00275326706469,0.767328985222,0.0128046761337,9.78589998293
1609060339381941256,26747,1609060339381941256,0.014102875945,-0.0357713277344,0.362723927738,0.931103041155,0.000775016960688,0.00199112459086,-0.00459743198007,0.765519763894,0.0102215464362,9.7850213685
1609060339384495690,26748,1609060339384495690,0.0141020977243,-0.0357709715623,0.362716771511,0.9311058544,0.000324853375787,0.00241614226252,-0.00475853448734,0.763666582637,0.00763883662177,9.78385066152
1609060339387282223,26749,1609060339387282223,0.0141051367496,-0.0357692303243,0.362711979655,0.931107741937,0.0010694663506,0.00257249735296,-0.00539009459317,0.761686341114,0.00500302072847,9.78313445055
1609060339391188008,26750,1609060339391188008,0.0141087283667,-0.0357686495797,0.362711644449,0.931107840409,0.00230514141731,0.00222130515613,-0.00509096961468,0.759601457432,0.00257505607652,9.78233820623
1609060339392769148,26751,1609060339392769148,0.0141076968575,-0.0357681805157,0.362708675867,0.931109030459,0.000634601106867,0.00233815168031,-0.00425253435969,0.757774126366,7.2867966257e-05,9.78220033854
1609060339394482825,26752,1609060339394482825,0.0141064672111,-0.0357684461564,0.362710513841,0.93110832291,-0.00014860893134,0.00238403910771,-0.00235441396944,0.755899476305,-0.00245746143674,9.78176745737
1609060339396843760,26753,1609060339396843760,0.0141094132773,-0.03576839382,0.362710229011,0.931108391236,0.00131713948213,0.0016513124574,-0.00124251062516,0.754345762946,-0.00513614191348,9.78161965853
1609060339397721481,26754,1609060339397721481,0.0141142404488,-0.035768274374,0.362705829854,0.93111003633,0.00130544463173,0.001094902982,-0.00250301603228,0.752728446431,-0.00756030479819,9.78134450734
1609060339401067850,26755,1609060339401067850,0.0141132475088,-0.0357689563806,0.36270869127,0.931108910537,-0.000216157641262,0.00139211153146,-0.00110971031245,0.751386062041,-0.00945709912665,9.78119203502
1609060339404541151,26756,1609060339404541151,0.014110862229,-0.0357689368507,0.362711012683,0.931108043141,-0.000853770703543,0.00167380075436,0.000386769039324,0.750010087006,-0.0109655700861,9.78051029098
1609060339407183704,26757,1609060339407183704,0.0141115673844,-0.0357681685727,0.362711038304,0.931108051987,-5.67540992051e-05,0.00196900358424,-0.000843786634505,0.748624984078,-0.0119426972922,9.78009551954
1609060339410794441,26758,1609060339410794441,0.0141141775446,-0.0357669024614,0.362712240146,0.931107592885,0.000161231262609,0.00264514610171,0.000150547828525,0.747219580717,-0.0124822059455,9.77995940441
1609060339412574196,26759,1609060339412574196,0.0141158539494,-0.035767503432,0.36271583314,0.931106144731,0.000383078993764,0.00199408875778,0.00167113193311,0.746042666763,-0.0125776608819,9.78038410699
1609060339413267574,26760,1609060339413267574,0.0141176187277,-0.0357688050234,0.362717123814,0.931105565186,0.00128500652499,0.00135135836899,0.000152632390382,0.744833257511,-0.0121249447949,9.78126096886
1609060339417133796,26761,1609060339417133796,0.0141184226588,-0.035768690711,0.362719185114,0.931104754395,0.00103831896558,0.00174390827306,-0.000505140807945,0.743775152206,-0.011495010674,9.78221903247
1609060339418212575,26762,1609060339418212575,0.0141157168656,-0.0357685861162,0.362720892176,0.931104134436,-0.000361204205547,0.00178640556987,-0.000127621242427,0.742841843449,-0.0112008597725,9.78337513483
1609060339422267620,26763,1609060339422267620,0.0141146411023,-0.0357682615512,0.362724756279,0.931102657903,-0.00100042659324,0.00213897484355,0.000674265436828,0.741739851236,-0.0108669614629,9.78477542657
1609060339424552796,26764,1609060339424552796,0.0141156332767,-0.0357666895805,0.362729141373,0.931100994958,-0.000751314801164,0.00301490211859,0.00159856770188,0.740668747813,-0.0106496811085,9.78622420567
1609060339427210029,26765,1609060339427210029,0.0141153255691,-0.03576507546,0.362731927387,0.931099976273,-0.000296726502711,0.00338394148275,0.00109542766586,0.739787431531,-0.010032708595,9.78766889548
1609060339431695543,26766,1609060339431695543,0.014113992149,-0.0357689493097,0.362731960164,0.931099834908,-0.0013961129589,0.0020852573216,0.000309681636281,0.738992209531,-0.00922009796044,9.78936887419
1609060339433508274,26767,1609060339433508274,0.014114622511,-0.0357706579614,0.362731196692,0.931100057141,-0.00158648868091,0.000708187988494,-0.00118637736887,0.738513907962,-0.00811221825751,9.79069614279
1609060339435278634,26768,1609060339435278634,0.0141148831573,-0.0357685265631,0.362732015024,0.93109981627,-0.000236607564148,0.00163727183826,-0.00243549863808,0.738747728057,-0.00679031685786,9.79194513059
1609060339437193280,26769,1609060339437193280,0.0141122854855,-0.0357694903419,0.362734795443,0.931098735438,-0.00127185613383,0.0023851855658,-0.000878613907844,0.739393033549,-0.00518961310806,9.79242533076
1609060339440041241,26770,1609060339440041241,0.0141093347135,-0.0357684986415,0.362739418925,0.931097017038,-0.0016671884805,0.00267102546059,8.67654161993e-05,0.740797487609,-0.0036127514136,9.79258422911
1609060339443154181,26771,1609060339443154181,0.0141075550875,-0.0357692623464,0.362739821826,0.931096857702,-0.00137320510112,0.00262667261995,-0.000944887869991,0.74244379431,-0.00176066093892,9.79259532863
1609060339443506267,26772,1609060339443506267,0.0141084966162,-0.0357695974166,0.362733722581,0.931099206705,-0.00163696694653,0.00227122497745,-0.00293112220243,0.744768559009,7.43466848508e-05,9.79253515756
1609060339447079238,26773,1609060339447079238,0.0141081546196,-0.0357691806324,0.362732629596,0.931099653698,-0.000953583861701,0.00250176666304,-0.00360250240192,0.747517661177,0.00194013812626,9.79210519731
1609060339450957324,26774,1609060339450957324,0.0141058737678,-0.0357705302096,0.362735609853,0.931098475371,-0.00142180547118,0.00187632674351,-0.00245034648106,0.750688910119,0.00371824246785,9.79191475296
1609060339452477919,26775,1609060339452477919,0.0141051553224,-0.0357699790753,0.362729899639,0.931100731982,-0.00161893141922,0.0019818386063,-0.0044236513786,0.754038043432,0.00547340841545,9.79117283785
1609060339454824663,26776,1609060339454824663,0.0141062961478,-0.0357692417737,0.362726424206,0.931102096945,-5.63688809052e-05,0.00226504402235,-0.00550485774875,0.75758959689,0.00701972361747,9.79055535418
1609060339457326587,26777,1609060339457326587,0.0141055545916,-0.0357695512007,0.362724210594,0.931102958639,-0.0001319682342,0.0019481384661,-0.00399761833251,0.76077939371,0.00828625065694,9.78969484949
1609060339457791972,26778,1609060339457791972,0.0141035593537,-0.0357714550851,0.362724619034,0.931102756607,-0.00104246032424,0.00180836557411,-0.00403466727585,0.764095301494,0.00935771919647,9.78894125068
1609060339461869454,26779,1609060339461869454,0.0141012698379,-0.0357715228255,0.362721367181,0.931104055482,-0.00160033395514,0.00212364364415,-0.00444918172434,0.766538217634,0.0103213188658,9.78814559054
1609060339464524762,26780,1609060339464524762,0.0141016062488,-0.0357706661937,0.362716631622,0.93110592807,-0.0015927888453,0.00239188084379,-0.00446281861514,0.76854365214,0.0110954599972,9.78754621661
1609060339466994859,26781,1609060339466994859,0.0141029119459,-0.0357721421037,0.362711282187,0.931107935472,-0.00049300538376,0.00134372897446,-0.00540522672236,0.769809946418,0.0117501854743,9.78729443282
1609060339471146506,26782,1609060339471146506,0.0141055748381,-0.0357709136077,0.362707878499,0.931109268224,0.000666898849886,0.00166574236937,-0.00582581758499,0.770370252974,0.0122989635025,9.78678268665
1609060339472742944,26783,1609060339472742944,0.0141085518805,-0.0357699956541,0.362704268847,0.931110664494,0.00166567007545,0.00231524044648,-0.00513493735343,0.770119199418,0.0125487117707,9.78643451232
1609060339474870543,26784,1609060339474870543,0.0141059013138,-0.0357689955147,0.362699318516,0.931112671408,0.00103438261431,0.00234760856256,-0.00617221929133,0.769375969894,0.0124720374732,9.78631124926
1609060339476828499,26785,1609060339476828499,0.0141072034477,-0.0357674042981,0.362695551295,0.931114180255,0.000505514908582,0.00284236250445,-0.00622437475249,0.767804292843,0.0120011933916,9.78634396362
1609060339479468592,26786,1609060339479468592,0.0141086423851,-0.035767661834,0.362691463507,0.931115740859,0.000916582765058,0.00248222379014,-0.00535401934758,0.765991347335,0.0110350972437,9.78625984097
1609060339481787665,26787,1609060339481787665,0.0141086394742,-0.0357683855313,0.362690086621,0.931116249432,0.000134347064886,0.00180812017061,-0.0042869723402,0.763678120293,0.00958818935556,9.78604310828
1609060339484542948,26788,1609060339484542948,0.0141110033582,-0.0357681062762,0.362686277641,0.93111770801,0.000315399433021,0.0016000114847,-0.00364368688315,0.761294133827,0.00823561823694,9.78557751274
1609060339486959306,26789,1609060339486959306,0.0141120781591,-0.0357658410256,0.36268396101,0.931118681099,0.00113476347178,0.00255891145207,-0.00408560596406,0.758676692382,0.00664679900324,9.78491387844
1609060339491999838,26790,1609060339491999838,0.014112999018,-0.0357645082763,0.36268045969,0.931120082141,0.000514763407409,0.00265344511718,-0.00349837262183,0.755913715817,0.00512259612093,9.78437934905
1609060339493683596,26791,1609060339493683596,0.0141144640415,-0.0357647563411,0.362678839542,0.931120681468,0.000307946116664,0.00165818491951,-0.00318695278838,0.753370465882,0.00339457652578,9.78418306285
1609060339494517062,26792,1609060339494517062,0.0141165516676,-0.035766586186,0.362680846697,0.931119797728,0.000776237167884,0.001280482742,-0.00156258535571,0.751198246524,0.00150986752706,9.78422862929
1609060339497039333,26793,1609060339497039333,0.0141179842496,-0.0357677149004,0.362679609729,0.931120214461,0.00064317783108,0.000957700016443,-0.00137936114334,0.749455476254,-0.000720665372908,9.78456745666
1609060339499565655,26794,1609060339499565655,0.0141172208192,-0.0357657094903,0.362677544133,0.931121107634,0.000104728445876,0.00158599868882,-0.00220301304944,0.748428259738,-0.00274480293039,9.78452305859
1609060339501414931,26795,1609060339501414931,0.0141189684701,-0.0357652017843,0.362678463968,0.931120742355,0.000494282052387,0.00215256237425,-0.00130231503863,0.74775863754,-0.00472048050631,9.78433611935
1609060339504651164,26796,1609060339504651164,0.0141228817262,-0.0357660102436,0.362678856359,0.931120499115,0.00139724253677,0.00126138608903,-0.00163068925031,0.747259451352,-0.0065878875847,9.78420409352
1609060339507039115,26797,1609060339507039115,0.0141226482737,-0.0357690019255,0.362681317959,0.931119428919,0.000178121146746,0.000243643997237,-0.000905702007003,0.746973273665,-0.00838927261624,9.784177221
1609060339510675028,26798,1609060339510675028,0.0141217628321,-0.0357702028198,0.362680705964,0.931119634594,-0.000699123076629,0.000480140675791,-0.000643546693027,0.746661318809,-0.0100266887499,9.78416728985
1609060339512452014,26799,1609060339512452014,0.0141228125852,-0.0357693662447,0.36268257819,0.931118921557,0.000324407126755,0.00172131741419,-0.000947813445237,0.746305842161,-0.0111469139275,9.78439278531
1609060339514554598,26800,1609060339514554598,0.0141252030669,-0.0357667250851,0.362684912283,0.931118077591,0.000455233181128,0.00245155068114,0.000432339234976,0.745835134998,-0.0115205550813,9.78500442713
1609060339516928784,26801,1609060339516928784,0.0141281932941,-0.0357657307757,0.362685580896,0.931117809983,0.00118116464,0.00222586444579,-0.000117522431538,0.745077885032,-0.0115199982799,9.78580359238
1609060339519493864,26802,1609060339519493864,0.0141273716013,-0.0357703568247,0.36268891488,0.931116346096,0.000582919165026,0.00135686330032,0.000585142755881,0.744273243047,-0.0111161072901,9.786234721
1609060339520990102,26803,1609060339520990102,0.01412569427,-0.0357709207576,0.362695375369,0.931113833361,-0.00128599989694,0.00145475822501,0.0031441017054,0.743593616679,-0.0103365989579,9.7866746124
1609060339524155673,26804,1609060339524155673,0.0141261950681,-0.0357705363222,0.362700853943,0.931111706453,-0.000555133156013,0.00160228135064,0.00342435948551,0.742534416027,-0.00930882107606,9.78662086737
1609060339525290036,26805,1609060339525290036,0.0141264624484,-0.0357711833494,0.36270494664,0.931110083279,0.000117587595014,0.00128971110098,0.00238050753251,0.741841280378,-0.00787835708633,9.78651279312
1609060339531477596,26806,1609060339531477596,0.014127173162,-0.0357704204612,0.362698586166,0.93111257944,-0.000577309401706,0.00206905743107,-0.00136407907121,0.741206855334,-0.00586901127873,9.78594262844
1609060339533122293,26807,1609060339533122293,0.0141246081959,-0.0357720900353,0.362699051443,0.931112372971,-0.00183946161997,0.00209817662835,-0.00287105375901,0.741067527182,-0.00369165291684,9.78524511141
1609060339534660633,26808,1609060339534660633,0.0141242486801,-0.0357726499234,0.362708198579,0.931108793751,-0.00161417899653,0.00186810200103,-8.88295471668e-06,0.741414314076,-0.00157494940097,9.78457446688
1609060339536836518,26809,1609060339536836518,0.0141241817503,-0.0357708685142,0.362709363825,0.93110840929,-0.00017239653971,0.00279270648025,0.000225107884035,0.742451023601,0.000843143435195,9.78412172341
1609060339537920103,26810,1609060339537920103,0.0141253182875,-0.035771043407,0.36270883415,0.931108591662,-0.000211395585211,0.00238651409745,-0.00066515954677,0.743754851773,0.00301427201042,9.78344056356
1609060339541928808,26811,1609060339541928808,0.0141251065885,-0.0357712382192,0.362707414367,0.931109140458,-0.000593237346038,0.00166965043172,-0.00174749677535,0.745536543377,0.00501870244788,9.78320630533
1609060339542588337,26812,1609060339542588337,0.0141230410681,-0.0357719427406,0.362706175442,0.931109627337,-0.000669599976391,0.00229530734941,-0.00323821860366,0.747488817036,0.00687380056316,9.78307252693
1609060339545295944,26813,1609060339545295944,0.0141214976749,-0.0357737562656,0.362705536524,0.931109829956,-0.00138681696262,0.00188598199748,-0.00286210654303,0.749875870474,0.00867459684564,9.78328867543
1609060339550787056,26814,1609060339550787056,0.0141182646329,-0.0357751626419,0.362707401553,0.931109098441,-0.00280277896672,0.00149092357606,-0.00244659860618,0.752408093914,0.0102012779508,9.78380743182
1609060339552398896,26815,1609060339552398896,0.0141177174565,-0.0357746096074,0.362703576402,0.93111061804,-0.00214162794873,0.00222843233496,-0.00385649222881,0.755213277854,0.011698046952,9.78483442926
1609060339554458465,26816,1609060339554458465,0.0141168500014,-0.035772910222,0.362698928032,0.931112507189,-0.00175561895594,0.0026846844703,-0.00503724627197,0.758097545855,0.0130169407111,9.7861406672
1609060339556934561,26817,1609060339556934561,0.0141153594418,-0.0357729352125,0.362695675701,0.93111379571,-0.00218153838068,0.00260591111146,-0.00477679399773,0.761323343083,0.0143394217319,9.78783830917
1609060339559417486,26818,1609060339559417486,0.0141148669203,-0.035777282089,0.362697367517,0.931112977148,-0.00120561604854,0.00129652477335,-0.00345869269222,0.764380237788,0.0154436046383,9.78935894305
1609060339561877698,26819,1609060339561877698,0.0141136405452,-0.0357785072673,0.362693582826,0.931114422907,-0.00128943112213,0.000809653312899,-0.00368444155902,0.767313577339,0.0162558547212,9.79064064521
1609060339562701972,26820,1609060339562701972,0.0141155004607,-0.0357724385921,0.362686232976,0.931117490811,0.000681840348989,0.00306206988171,-0.00585102755576,0.769905460685,0.0164358248147,9.79121256244
1609060339567036940,26821,1609060339567036940,0.0141146821254,-0.0357731131867,0.362686053519,0.9311175472,0.000973410904408,0.00320831756108,-0.00431744521484,0.772239353277,0.0164810078829,9.79163492829
1609060339570711295,26822,1609060339570711295,0.0141139939223,-0.0357759531216,0.362685205812,0.931117778715,-0.000489382073283,0.00183223397471,-0.0033654384315,0.773745528571,0.0163503694846,9.791567747
1609060339575103645,26823,1609060339575103645,0.0141166692772,-0.0357750468335,0.362678264652,0.931120476642,0.000929786940105,0.0019141100347,-0.00632189121097,0.774530454308,0.0160744332927,9.79083985233
1609060339575381271,26824,1609060339575381271,0.0141175400323,-0.0357738371393,0.362670264999,0.931123625801,0.000448955601314,0.00169898406602,-0.00702661927789,0.77438192524,0.0154170333431,9.78983096462
1609060339575639548,26825,1609060339575639548,0.0141191519755,-0.0357722345046,0.362669409284,0.93112399623,0.000253957608948,0.00211368175223,-0.00441583897918,0.773669292413,0.0143989447192,9.78842074174
1609060339579465701,26826,1609060339579465701,0.0141181408668,-0.0357729450728,0.36267126582,0.931123261146,0.000507858465426,0.00222054915503,-0.00301256636158,0.772607097812,0.013012865107,9.78733999926
1609060339581944471,26827,1609060339581944471,0.0141181599202,-0.0357733677907,0.362668032135,0.931124504127,-0.000417406641645,0.00169578904752,-0.00398898031563,0.770818907149,0.0112601454346,9.78631942785
1609060339584464094,26828,1609060339584464094,0.0141203490055,-0.0357733952651,0.362661176816,0.931127139958,0.000274704827461,0.00181235733908,-0.00415396085009,0.768477493174,0.00939088083012,9.78589180434
1609060339587024035,26829,1609060339587024035,0.0141221029812,-0.0357734018808,0.362658086006,0.931128316925,0.000984042882919,0.00171524507459,-0.00411694590002,0.765531593643,0.00699311124673,9.78545249712
1609060339591509786,26830,1609060339591509786,0.0141231432676,-0.0357722074414,0.362660411338,0.931127441356,0.000739731069189,0.00187422498129,-0.00272760214284,0.762223499335,0.00418974375771,9.78534675962
1609060339592453195,26831,1609060339592453195,0.014122675554,-0.0357720746581,0.362663071138,0.931126417594,2.82407854684e-05,0.0022492276039,-0.000222479982767,0.758874146953,0.00125102331396,9.78481631953
1609060339593392184,26832,1609060339593392184,0.0141229287177,-0.0357729703795,0.362662269282,0.931126691656,-0.000271218130365,0.00181860267185,-0.000275767728454,0.7554078115,-0.00239169497089,9.78429172128
1609060339596972324,26833,1609060339596972324,0.0141243127303,-0.0357733293169,0.362662979413,0.931126380285,0.000313997035846,0.00136652996298,-0.00114845635835,0.753305475287,-0.00475873094006,9.78375251842
1609060339599566938,26834,1609060339599566938,0.0141275382931,-0.0357720794294,0.362659945144,0.931127561177,0.00096604618011,0.00167631264776,-0.0015311697498,0.751223658577,-0.00751825716114,9.78329451728
1609060339601781051,26835,1609060339601781051,0.0141299135738,-0.0357726225025,0.3626603011,0.931127365631,0.00130299164448,0.0014638962457,-0.0016924617812,0.749367775463,-0.0100779007911,9.78273253119
1609060339604484878,26836,1609060339604484878,0.0141297508853,-0.0357723560297,0.362662938732,0.931126351015,0.00110896234401,0.00154661794659,-0.00114850560203,0.747949154913,-0.0120286957319,9.78273545212
1609060339606960565,26837,1609060339606960565,0.0141312384992,-0.0357720085719,0.362664703751,0.931125654332,0.000931337359361,0.00200828746893,-0.00053830438992,0.746750260994,-0.0131015334553,9.78216178232
1609060339610838204,26838,1609060339610838204,0.0141319606537,-0.0357717912303,0.362667014929,0.931124751536,0.000700608885381,0.00186678615864,0.000100984514575,0.74578263136,-0.0136456653862,9.78213490981
1609060339612474901,26839,1609060339612474901,0.0141321331114,-0.035770380423,0.362669541661,0.931123818968,0.000376939889975,0.00245385034941,0.000431612803368,0.744776664577,-0.0137072969167,9.78216411906
1609060339614516407,26840,1609060339614516407,0.0141343138559,-0.0357708167988,0.362674126565,0.931121983286,0.000587389571592,0.00222266186029,0.00183231581468,0.743840215825,-0.013290325657,9.78266768664
1609060339617104771,26841,1609060339617104771,0.0141360331647,-0.0357717756074,0.362678586085,0.931120183345,0.000853051547892,0.00111461093184,0.00267689302564,0.743230326556,-0.012970224157,9.78285754681
1609060339619385583,26842,1609060339619385583,0.0141366578539,-0.0357720344322,0.362679603413,0.931119767659,0.000397209165385,0.00142626720481,0.00153373018838,0.742772179373,-0.0122534609581,9.78322850436
1609060339622090889,26843,1609060339622090889,0.0141372131131,-0.0357725789276,0.362685308495,0.931117516109,4.39313007519e-05,0.00174956140108,0.00207351706922,0.742510610484,-0.0114121339736,9.78378523278
1609060339624505707,26844,1609060339624505707,0.0141374007068,-0.0357714503003,0.362688779086,0.931116204762,7.42629927117e-05,0.00175286829472,0.00193976599257,0.742618976824,-0.00998570451234,9.78426543295
1609060339625609465,26845,1609060339625609465,0.0141372644949,-0.0357703382888,0.362694935264,0.93111385157,6.42568920739e-05,0.00247081648558,0.00211562169716,0.742873389445,-0.00892460069479,9.78478711027
1609060339631942175,26846,1609060339631942175,0.0141375058875,-0.0357729694398,0.362698337457,0.931112421564,-0.000526111805812,0.00162042980082,0.00250898068771,0.743572147876,-0.00672170248954,9.7858304649
1609060339633540992,26847,1609060339633540992,0.0141362293087,-0.0357748191413,0.362699340784,0.93111197905,-0.00146531220526,0.000680818513501,0.000336805125698,0.744061183847,-0.00510549957817,9.78637492543
1609060339634979114,26848,1609060339634979114,0.014135515916,-0.0357745279357,0.362701860568,0.931111019525,-0.00154261372518,0.00168562692124,0.000151954009198,0.745213927142,-0.0022658532802,9.78733357322
1609060339637220371,26849,1609060339637220371,0.0141336711199,-0.0357754260011,0.3627029046,0.931110606335,-0.00161472253967,0.00212315423414,0.000176388188265,0.746097142026,-0.000379889196251,9.78788095468
1609060339641690284,26850,1609060339641690284,0.0141326893742,-0.0357738724684,0.362705407481,0.931109705955,-0.00174739095382,0.00272675906308,-0.00142929179128,0.747484654717,0.00273305533268,9.78856036198
1609060339642086683,26851,1609060339642086683,0.0141299601517,-0.0357728838005,0.362705482101,0.931109756293,-0.00181951269042,0.00355931208469,-0.00185919483192,0.748505956359,0.00467910376936,9.78916324103
1609060339644541169,26852,1609060339644541169,0.0141284035614,-0.0357748046449,0.362706562206,0.931109285368,-0.00215515145101,0.00283637037501,-0.00203790375963,0.750531253159,0.00752493877849,9.78945533359
1609060339645323495,26853,1609060339645323495,0.0141258940525,-0.0357762342462,0.362704746803,0.931109975689,-0.00245522242039,0.00190246943384,-0.00282948790118,0.752543916956,0.00921623686189,9.7900243299
1609060339651079544,26854,1609060339651079544,0.014124453424,-0.0357759958273,0.362702191025,0.931111002278,-0.00226137158461,0.00222356058657,-0.00393438898027,0.755855370328,0.0116606819239,9.79031291735
1609060339652798979,26855,1609060339652798979,0.014123146767,-0.035774725888,0.362699301274,0.931112196552,-0.00143971969374,0.00305425236002,-0.00443968223408,0.758530427031,0.0130671121725,9.79079954356
1609060339654485056,26856,1609060339654485056,0.0141181189948,-0.035773437661,0.362696504029,0.93111341191,-0.00239069480449,0.00362238846719,-0.00510238111019,0.76258518295,0.015184189932,9.79093449032
1609060339657191702,26857,1609060339657191702,0.0141164401354,-0.0357726600418,0.362692296214,0.931115106299,-0.00262234266847,0.0034925956279,-0.00566495675594,0.765322820485,0.0164771924238,9.79109046775
1609060339659495125,26858,1609060339659495125,0.0141183369477,-0.0357724978538,0.362690371012,0.931115833683,-0.000207475153729,0.00307407905348,-0.00504808267578,0.768968865886,0.0179716475043,9.79033161128
1609060339661786520,26859,1609060339661786520,0.0141162462162,-0.0357719947472,0.362686206411,0.931117506904,-0.000399540353101,0.00303125823848,-0.00501954462379,0.771690803446,0.0185566176265,9.78980000281
1609060339664585432,26860,1609060339664585432,0.0141112744174,-0.0357732103451,0.362682937181,0.931118808979,-0.00202306522988,0.0025417865254,-0.00488394498825,0.773469355054,0.01853524923,9.7888658908
1609060339666945301,26861,1609060339666945301,0.0141103350887,-0.0357732584583,0.362679980625,0.931119972977,-0.00165407091845,0.00216903793626,-0.00437535531819,0.775465369575,0.0176065683137,9.78790899557
1609060339670910469,26862,1609060339670910469,0.0141115765404,-0.0357700265174,0.362676724989,0.931121346422,-0.000694856687915,0.00293263606727,-0.00443586800247,0.775891751692,0.016236836757,9.78668454355
1609060339672838991,26863,1609060339672838991,0.0141092883233,-0.0357684304234,0.362671255826,0.931123572661,-0.0010006306693,0.00374254235066,-0.00551264546812,0.775833990388,0.014566240734,9.78606238639
1609060339673385799,26864,1609060339673385799,0.0141104991729,-0.0357685645772,0.362667495119,0.93112501394,6.51875743642e-05,0.0029518334195,-0.00555763207376,0.774522275716,0.011640787682,9.78466384721
1609060339675949318,26865,1609060339675949318,0.0141110134536,-0.0357687350325,0.362666545722,0.931125369382,0.000928309746087,0.0018866546452,-0.00362737057731,0.772812511906,0.00922130284226,9.7841065346
1609060339679563320,26866,1609060339679563320,0.014107956089,-0.0357694956917,0.362661507498,0.931127348826,-0.00106157502159,0.00208738073707,-0.00494749750942,0.770948596247,0.00751183112478,9.78358894658
1609060339681932139,26867,1609060339681932139,0.0141107306273,-0.03576875273,0.362658268658,0.931128596803,-0.000125314923935,0.00209852145053,-0.00598530191928,0.768545915857,0.00530510833254,9.78358135217
1609060339684368940,26868,1609060339684368940,0.0141135267897,-0.0357672080468,0.362658967781,0.931128341464,0.00154308904894,0.0016657753149,-0.00273350020871,0.765055847883,0.00316027265182,9.78410595042
1609060339687080207,26869,1609060339687080207,0.0141138279507,-0.035765527305,0.362654758393,0.931130040935,0.000743217766285,0.00237444066443,-0.00311026815325,0.762918971725,0.00181604442699,9.78485487574
1609060339692139036,26870,1609060339692139036,0.0141123831633,-0.0357658788113,0.362651952999,0.931131141967,0.000698397052474,0.00250439695083,-0.00371770001948,0.759487833425,3.34217785858e-05,9.78547820127
1609060339693784607,26871,1609060339693784607,0.0141123656084,-0.0357654318346,0.362654837237,0.931130036059,0.000517069594935,0.00209259823896,-0.000655147014186,0.757356872141,-0.000876327888574,9.78575919431
1609060339694691092,26872,1609060339694691092,0.0141131171671,-0.0357649255114,0.362658398593,0.931128657038,-0.000162629949045,0.00272429385222,0.000412952213082,0.754465301827,-0.00246671255585,9.78549514264
1609060339696886322,26873,1609060339696886322,0.0141153569186,-0.0357638660192,0.362660464862,0.931127859003,0.000753107771743,0.00262415641919,1.21431585285e-05,0.752486885883,-0.003863074739,9.78532806569
1609060339699482922,26874,1609060339699482922,0.0141184472464,-0.0357623343423,0.362655717654,0.931129719933,0.00162193120923,0.00235457974486,-0.00113507569768,0.751044970952,-0.00511739322217,9.78477717912
1609060339701882378,26875,1609060339701882378,0.0141194843748,-0.0357620345042,0.362658750195,0.931128534605,0.00108029972762,0.00224571116269,-0.000701931363437,0.74904450202,-0.00663714169292,9.7840633049
1609060339704453203,26876,1609060339704453203,0.0141193748544,-0.0357653517393,0.362664034433,0.931126350716,0.00068210385507,0.000609924492892,0.000977783929557,0.747689411603,-0.00772536904318,9.78355856895
1609060339706966717,26877,1609060339706966717,0.0141220855101,-0.0357657023047,0.362667450556,0.931124965591,0.00121799786575,0.000124712532852,0.00113297521602,0.746819779024,-0.00836027786555,9.78292180717
1609060339710758975,26878,1609060339710758975,0.0141207829119,-0.0357624629745,0.362668517052,0.931124694373,0.000290346099064,0.0020555742085,0.00107463321183,0.746037117004,-0.00926166181918,9.78284002125
1609060339712477871,26879,1609060339712477871,0.0141205371054,-0.0357630558941,0.362669903547,0.931124135294,-0.000879490165971,0.002393435454,0.000239956600126,0.745470530458,-0.00987270120252,9.78269397497
1609060339713235828,26880,1609060339713235828,0.0141222733828,-0.0357641640691,0.362674329468,0.931122342503,-4.79154405184e-05,0.00192760396749,0.000715315516572,0.745020342797,-0.0108174335179,9.78310582548
1609060339716927049,26881,1609060339716927049,0.0141214999882,-0.0357636639175,0.362675856903,0.931121778502,-8.42584704515e-05,0.00241399370134,0.000781961483881,0.744721824199,-0.0112275999337,9.7833406679
1609060339719508817,26882,1609060339719508817,0.0141227148655,-0.0357606573145,0.362679267272,0.931120547192,0.000323752261465,0.00323810032569,1.22630735859e-05,0.744456092991,-0.0115471355044,9.78399378687
1609060339721893851,26883,1609060339721893851,0.0141208077741,-0.0357615366493,0.362684865855,0.93111836163,-0.000232098042034,0.00288850069046,0.00177334365435,0.744054976881,-0.011525251382,9.78477601075
1609060339722902648,26884,1609060339722902648,0.014119851539,-0.0357650953518,0.362689480204,0.931116442072,-0.00161235081032,0.00147176277824,0.00225965771824,0.743420478813,-0.0110417240937,9.78599345255
1609060339727084564,26885,1609060339727084564,0.0141199961895,-0.0357633114325,0.36269596493,0.931113982435,-0.000446371908765,0.00216549728066,0.00259299296886,0.742933341444,-0.0102484737192,9.78708763129
1609060339731706477,26886,1609060339731706477,0.014120113487,-0.0357602342051,0.36269393109,0.931114891082,-0.000347485358361,0.00294441310689,0.0011362346122,0.742511705831,-0.00923058134504,9.78863104838
1609060339733458947,26887,1609060339733458947,0.0141188399708,-0.0357598397477,0.362692530567,0.931115471083,-0.00120707775932,0.00263320468366,-0.00221855659038,0.742218956061,-0.00807183646085,9.78954296136
1609060339734864475,26888,1609060339734864475,0.0141164869537,-0.0357635179315,0.362701574259,0.931111842697,-0.0013244805159,0.00209747999907,0.000942753511481,0.742400199495,-0.00574792522006,9.79131654739
1609060339735605020,26889,1609060339735605020,0.014114238074,-0.035765133071,0.362707130299,0.931109650455,-0.00186398054939,0.00148936605547,0.00397368473932,0.742841916472,-0.00349380584573,9.79250886923
1609060339739550138,26890,1609060339739550138,0.01411179321,-0.035762296589,0.362709443937,0.931108895196,-0.00218509789556,0.00277005042881,0.00150308455341,0.743907324091,-0.00107756140782,9.79351074672
1609060339741187556,26891,1609060339741187556,0.0141078333339,-0.0357631690392,0.362708979092,0.931109102772,-0.002814513864,0.00329514918849,-0.0010755690746,0.74529315725,0.00146504957462,9.79384256387
1609060339744557743,26892,1609060339744557743,0.0141079835428,-0.0357621135003,0.362705827925,0.931110368553,-0.00213914108463,0.00301155168563,-0.00309840240516,0.747153421752,0.00420637934189,9.7938805359
1609060339746984414,26893,1609060339746984414,0.0141064602363,-0.0357616128166,0.362703457024,0.931111334423,-0.00106431648601,0.00316921295598,-0.00397160975263,0.749603421137,0.00705823419616,9.79321456486
1609060339750786477,26894,1609060339750786477,0.0141046667682,-0.0357632584938,0.362707146687,0.931109861112,-0.00161045382265,0.00223043560982,-0.00351291522384,0.752726255737,0.00950218178798,9.79253223664
1609060339752468825,26895,1609060339752468825,0.0141065419014,-0.0357608199432,0.362702719598,0.931111650893,-9.70149412751e-05,0.00246014702134,-0.00445276452228,0.756033911906,0.0116247864864,9.79160747159
1609060339754396186,26896,1609060339754396186,0.0141035860456,-0.0357596396623,0.362699980408,0.931112808012,1.29663385451e-05,0.00317170517519,-0.00514664873481,0.759697117746,0.0132494920297,9.79077383941
1609060339757171441,26897,1609060339757171441,0.0141025549147,-0.0357599173362,0.362698121525,0.931113537062,-0.00142015563324,0.00258022383787,-0.00397260626778,0.763105399802,0.0145040569659,9.7899419598
1609060339759416223,26898,1609060339759416223,0.0140997640789,-0.0357611384699,0.362694688505,0.93111486969,-0.00117108901031,0.00252083921805,-0.00486549641937,0.766500318624,0.0155566353318,9.78936536908
1609060339761836621,26899,1609060339761836621,0.0140984231441,-0.035761146022,0.362692978004,0.93111555599,-0.00124505744316,0.00266735861078,-0.0047999182716,0.769267530531,0.0160538407671,9.78864097953
1609060339764552419,26900,1609060339764552419,0.0141010113199,-0.0357570941937,0.362690670664,0.93111657117,0.000137678172905,0.00305967382155,-0.00347754196264,0.771659330472,0.0159962757127,9.78819407791
1609060339766863241,26901,1609060339766863241,0.0141002822038,-0.0357560843726,0.362687949429,0.931117680968,0.00049697724171,0.00334951537661,-0.00392381520942,0.773091022164,0.0153481542659,9.78795339364
1609060339770787231,26902,1609060339770787231,0.0140984139348,-0.0357575938591,0.362683642743,0.931119328815,-0.000754694163334,0.00251394906081,-0.00412120483816,0.773721138842,0.0143889770606,9.7881707105
1609060339772369822,26903,1609060339772369822,0.01409696071,-0.0357583973942,0.362678615033,0.931121278305,-0.00132581917569,0.00194276170805,-0.00509441178292,0.773602549262,0.0132588252998,9.78846981329
1609060339774537159,26904,1609060339774537159,0.0140978913046,-0.0357572299753,0.362679818048,0.931120840464,-0.000905458582565,0.00199424498715,-0.00380380777642,0.772956440516,0.0123625940415,9.78853933132
1609060339777456566,26905,1609060339777456566,0.0140979199915,-0.0357565914658,0.362679005691,0.931121180969,-7.3887698818e-05,0.00231787422672,-0.00201733619906,0.771760175429,0.0113776259758,9.78849843836
1609060339777716528,26906,1609060339777716528,0.0140989066282,-0.0357567778283,0.362673302451,0.93112338031,7.70506449044e-06,0.00181837193668,-0.00448277685791,0.770330747455,0.0104011468501,9.78785408217
1609060339787213492,26907,1609060339787213492,0.0140995857897,-0.0357584332634,0.362670968501,0.931124215525,-0.000108011430711,0.000868296367116,-0.00512393983081,0.768442369044,0.0091539481231,9.78721848875
1609060339787389014,26908,1609060339787389014,0.0140962681879,-0.0357603980218,0.36267207632,0.931123758807,-0.00132676633075,0.0010019709589,-0.00265711732209,0.766200850725,0.00791386915231,9.78620142245
1609060339787541536,26909,1609060339787541536,0.0140999083857,-0.0357587870245,0.362671636381,0.931123936917,0.000280495383777,0.00179106113501,-0.00191989017185,0.763844174914,0.00661687777145,9.7850645982
1609060339790837838,26910,1609060339790837838,0.0141022630161,-0.0357571530106,0.362666296451,0.931126043887,0.00168641027994,0.00199022702873,-0.00352051015943,0.761415936425,0.005320361041,9.78341894871
1609060339792546035,26911,1609060339792546035,0.0141017355354,-0.0357575540983,0.362665896402,0.931126192289,-0.000156686845003,0.00184468214866,-0.00342344120145,0.758815728441,0.0038066826188,9.7819742589
1609060339794622144,26912,1609060339794622144,0.0140998583342,-0.0357598749346,0.362669908304,0.931124568976,2.31488083955e-05,0.00188480271026,-0.000650186208077,0.756182513997,0.00218962168554,9.78041214788
1609060339796890760,26913,1609060339796890760,0.0141021201123,-0.0357599669721,0.362671164421,0.931124041934,0.0011346504325,0.00159414019436,2.12403538171e-05,0.753524033546,0.00028098848043,9.7797163834
1609060339799478503,26914,1609060339799478503,0.0141056056547,-0.035759691714,0.362668965206,0.931124856297,0.00106558785774,0.00123909185641,-0.000900147191714,0.750916669294,-0.00208409411972,9.77883017457
1609060339800991070,26915,1609060339800991070,0.0141062228921,-0.0357601007308,0.362669150878,0.93112475892,0.000388776650652,0.00136081967503,-0.00134090473875,0.748679094225,-0.004851164544,9.77856203359
1609060339804473084,26916,1609060339804473084,0.0141080854645,-0.0357603749081,0.362670311138,0.931124268253,0.00111451162957,0.00111736822873,-0.00143634178676,0.746831170633,-0.00766507474892,9.77835640043
1609060339807311315,26917,1609060339807311315,0.0141061998426,-0.0357597971409,0.362671616459,0.931123810591,0.000342730199918,0.00184927613009,-0.00094602216268,0.745632276714,-0.0103082796712,9.77846272212
1609060339810789322,26918,1609060339810789322,0.0141054923766,-0.0357603159928,0.36267383295,0.931122938058,-0.00112968427129,0.00239783967845,-0.000575894722715,0.74449165526,-0.0121052970062,9.77837567854
1609060339812484856,26919,1609060339812484856,0.014108578068,-0.0357605010731,0.362675954984,0.931122057662,0.00062679318944,0.00139017193578,-0.000263153400738,0.743771135934,-0.013547818942,9.77866601855
1609060339813262748,26920,1609060339813262748,0.0141122494693,-0.035760425687,0.362679120549,0.931120771913,0.00121549435426,0.00167446117848,0.000795136555098,0.742944367938,-0.0145361552001,9.77927590781
1609060339817046028,26921,1609060339817046028,0.0141139016741,-0.0357610567131,0.362683982218,0.93111882896,0.000662233389448,0.00171775789931,0.00199678260833,0.742309577778,-0.0147837629775,9.78046005106
1609060339819589199,26922,1609060339819589199,0.0141101837222,-0.0357622705413,0.362685276739,0.931118334455,-1.62137439474e-05,0.00130955770146,0.00151708070189,0.741678730868,-0.0145466796602,9.78164769942
1609060339821925970,26923,1609060339821925970,0.0141101990657,-0.0357614551038,0.362688569256,0.931117083047,-0.000442619086243,0.00208718050271,0.000840688473545,0.741261111528,-0.0134798161425,9.78312977707
1609060339822740592,26924,1609060339822740592,0.0141121443493,-0.0357598151839,0.362690991237,0.931116173136,0.000311216979753,0.00250841770321,0.000911665498279,0.740890446067,-0.0116843414214,9.784562199
1609060339825405308,26925,1609060339825405308,0.0141094799793,-0.0357612260422,0.362695861795,0.93111426212,-0.000984037993476,0.00206811190583,0.00164511392359,0.740821950361,-0.00924390350422,9.78601214647
1609060339831702355,26926,1609060339831702355,0.0141076593336,-0.0357624785181,0.362698691544,0.931113139329,-0.00202049873769,0.00231649470516,0.00122860318515,0.740635011122,-0.00653950975416,9.78717934835
1609060339833451577,26927,1609060339833451577,0.0141069238159,-0.0357614102005,0.36270114217,0.931112236902,-0.000982968602329,0.00295993778855,0.000130191343487,0.740656625971,-0.00369447799958,9.78814091706
1609060339834557746,26928,1609060339834557746,0.0141077799288,-0.0357612758704,0.362704745857,0.931110825319,-0.00109842955135,0.00239245127887,0.000883898348548,0.7407958811,-0.000476384712383,9.78923217487
1609060339837000930,26929,1609060339837000930,0.0141044368761,-0.0357626844434,0.36270705671,0.931109921693,-0.00243042898364,0.00184754212387,0.000885235611349,0.741209557191,0.00277984034596,9.79037308842
1609060339837910189,26930,1609060339837910189,0.0141002877244,-0.0357639875459,0.362706711265,0.931110069049,-0.00294196559116,0.00217667780817,-0.00102706078906,0.741721376382,0.00565953527251,9.79144915742
1609060339841989322,26931,1609060339841989322,0.0140993449281,-0.0357621933621,0.362705250959,0.931110721088,-0.00164638587739,0.00302417832427,-0.00269678328186,0.742712811559,0.00844488430163,9.79238735873
1609060339844347982,26932,1609060339844347982,0.0140992573656,-0.0357600132871,0.362708606381,0.931109499065,-0.000950959860347,0.00358354579657,-0.00200276402757,0.744214678489,0.0108449951895,9.79278168368
1609060339845207406,26933,1609060339845207406,0.0140975733331,-0.0357610125691,0.362707304638,0.931109993271,-0.00162802170962,0.00264736497775,-0.00189819419757,0.746651971847,0.0131106567839,9.79254976219
1609060339859007327,26934,1609060339859007327,0.0140933178612,-0.0357631608489,0.362706926409,0.931110122517,-0.00195197947323,0.00245186826214,-0.00295159546658,0.74982811334,0.0149021289242,9.79200939095
1609060339859311687,26935,1609060339859311687,0.014093117226,-0.0357619029309,0.36270604701,0.931110516431,-0.00106529681943,0.00307849375531,-0.00281535508111,0.753493144758,0.0162251576185,9.79106768453
1609060339859472330,26936,1609060339859472330,0.0140938157375,-0.0357589541092,0.362702396053,0.931112041301,-3.17206431646e-05,0.00298997946084,-0.00430970452726,0.757650936328,0.0168377533075,9.79036432564
1609060339859612007,26937,1609060339859612007,0.0140919858989,-0.0357584585715,0.362697762377,0.931113893002,-0.000812254962511,0.00294203171507,-0.00590365752578,0.76166903463,0.0172227723794,9.78942145085
1609060339859827586,26938,1609060339859827586,0.0140888666065,-0.0357596217978,0.362695623004,0.931114728882,-0.0013273616787,0.00278859375976,-0.00536735635251,0.765520786218,0.0171830249713,9.78880046207
1609060339861838557,26939,1609060339861838557,0.0140876539965,-0.0357600749524,0.362691444557,0.931116357439,-0.00122680806089,0.00234543322586,-0.00516421347857,0.768818365194,0.0170717513971,9.78836465997
1609060339862704557,26940,1609060339862704557,0.0140891959482,-0.0357616341822,0.362692691467,0.931115788522,-0.00109989545308,0.0011519221589,-0.0036198515445,0.77143069502,0.0165156117235,9.78811112362
1609060339867065365,26941,1609060339867065365,0.0140889890226,-0.0357625290357,0.362692700157,0.931115753898,-0.000720029231161,0.000840543420054,-0.00183035992086,0.772868812747,0.0158754726187,9.78791542161
1609060339870716598,26942,1609060339870716598,0.0140881643677,-0.0357603653684,0.362687609173,0.931117832525,-0.000404812482884,0.00185441877693,-0.00313878245652,0.773445914626,0.0149792459244,9.78810878688
1609060339872464727,26943,1609060339872464727,0.0140889906118,-0.0357624938608,0.36268648638,0.931118175622,-0.000216745305806,0.00124534673523,-0.00361455371603,0.772897875957,0.0137968689264,9.78800012845
1609060339874511882,26944,1609060339874511882,0.0140881970624,-0.0357649521991,0.362684273587,0.931118955124,-0.000592555850744,0.000684006256051,-0.00297221704386,0.771683793224,0.0125130992979,9.78786284494
1609060339876856932,26945,1609060339876856932,0.0140910846443,-0.0357642024814,0.362681438011,0.931120044719,0.000562979665119,0.00145819736645,-0.00377837009728,0.769607672319,0.0109065491329,9.78741652751
1609060339879404577,26946,1609060339879404577,0.0140921407194,-0.0357625924142,0.36267980943,0.931120724925,0.00140732410364,0.0017695928691,-0.00377958640456,0.767493944496,0.00895588654652,9.78694275337
1609060339881901882,26947,1609060339881901882,0.0140935091853,-0.0357622203134,0.362674928915,0.931122619494,0.000754577573389,0.00184782699216,-0.00461959931999,0.765159175627,0.00660170721402,9.78619616479
1609060339884513987,26948,1609060339884513987,0.0140954541777,-0.0357639267806,0.362671325093,0.931123928201,0.00166861445177,0.00161434651818,-0.00589154567569,0.762898233153,0.00395240942342,9.78571129113
1609060339885695220,26949,1609060339885695220,0.0140944879943,-0.0357646660761,0.362668709452,0.931124933214,0.000674240640365,0.00153989880346,-0.00488799717277,0.760669420861,0.00115808767593,9.78523401189
1609060339891928881,26950,1609060339891928881,0.0140924400506,-0.0357649607251,0.362668636752,0.931124981211,-0.00142136856448,0.00202347151935,-0.00401735492051,0.758536560975,-0.00159940758906,9.7851785143
1609060339893595937,26951,1609060339893595937,0.014093498551,-0.0357649297214,0.362669582448,0.931124598036,-0.000496762630064,0.00201713107526,-0.00252550048754,0.756418816879,-0.00400598558877,9.78561022711
1609060339894705451,26952,1609060339894705451,0.0140972232307,-0.0357645380213,0.362666032194,0.9311259395,2.13530147448e-05,0.00171751517337,-0.0020953391213,0.754708541907,-0.00598661504639,9.78614592487
1609060339896894012,26953,1609060339896894012,0.0140985495165,-0.0357643302654,0.362663722205,0.931126827118,9.41258622333e-05,0.00174433726352,-0.00349454861134,0.753036896177,-0.00751626271661,9.78648299968
1609060339899402032,26954,1609060339899402032,0.0140970505367,-0.0357649519003,0.362662500671,0.931127301709,0.000298600265523,0.00176579284016,-0.00250104977749,0.751697286665,-0.00868145189295,9.78660042089
1609060339901858305,26955,1609060339901858305,0.0140965420227,-0.035765233459,0.362666354082,0.931125797728,-0.000354049057933,0.00185012305155,0.000171512598172,0.750319851167,-0.009480941182,9.78620960104
1609060339904491172,26956,1609060339904491172,0.014099531401,-0.0357655429374,0.362670764725,0.931124022656,0.000879535858985,0.00149512686767,0.00145912193693,0.749188576676,-0.0100319190323,9.7856417731
1609060339906919229,26957,1609060339906919229,0.0141019501647,-0.0357665144177,0.362674918519,0.931122330806,0.00187442975584,0.00081200839486,0.00155208248179,0.748222772621,-0.0103752510189,9.78491855192
1609060339910805308,26958,1609060339910805308,0.0141012890261,-0.0357673337484,0.362671231698,0.931123745365,0.000459015107481,0.000991001841612,0.000301512307487,0.747094126962,-0.0106342504062,9.78435247654
1609060339912320593,26959,1609060339912320593,0.0141015758752,-0.0357688740417,0.3626744699,0.931122420571,-0.000432643457316,0.00108928326517,-5.95072342549e-05,0.745759921163,-0.0108446574574,9.78389155447
1609060339914585515,26960,1609060339914585515,0.0141005091246,-0.0357682763154,0.362681047161,0.931119897801,-0.000709627580363,0.00156099244487,0.0017812725855,0.744538974255,-0.0108371086903,9.78361990839
1609060339916916736,26961,1609060339916916736,0.0141009266558,-0.0357673659371,0.362684415133,0.931118614582,-0.000303312321194,0.0024574554991,0.00181879091542,0.74317183502,-0.0104781497517,9.78390732747
1609060339919474477,26962,1609060339919474477,0.0141020795058,-0.0357676293504,0.362690772583,0.931116110658,9.32536204346e-06,0.00235122907907,0.00286784302443,0.741948332302,-0.00996543602692,9.78489109522
1609060339921864384,26963,1609060339921864384,0.0141020756522,-0.0357693615703,0.362694210064,0.93111470519,-0.000529037963133,0.0014258120209,0.00292599061504,0.740974349655,-0.00944333882863,9.78628320837
1609060339924459443,26964,1609060339924459443,0.0141008204798,-0.0357730741732,0.362695618194,0.931114033064,-0.00105070497375,0.000596794707235,0.000828722026199,0.740183436021,-0.00901066302974,9.78767298478
1609060339927241600,26965,1609060339927241600,0.0141001089439,-0.0357745912883,0.362699179952,0.931112598136,-0.00128132058308,0.000779509544373,0.000887929345481,0.739843951441,-0.00861388266832,9.78881272995
1609060339931805956,26966,1609060339931805956,0.0140996876218,-0.0357737481132,0.36270292652,0.931111177491,-0.00116185168736,0.00108523515519,0.000260495173279,0.739781808749,-0.00799806483323,9.78993962306
1609060339933544065,26967,1609060339933544065,0.0140970603408,-0.0357757185606,0.362705872,0.931109994183,-0.00195035524666,0.00119448418263,3.41197301168e-05,0.740135094702,-0.00762830759771,9.79060325736
1609060339934788837,26968,1609060339934788837,0.0140975438573,-0.0357793659478,0.36271055403,0.931108022855,-0.00178528565448,0.000512903148774,0.00107990170363,0.74114558892,-0.00693022006704,9.7908252477
1609060339936895349,26969,1609060339936895349,0.0140949337918,-0.0357812925594,0.362709152527,0.931108534284,-0.00184506422374,0.000527312571649,-0.00080086721573,0.742782548659,-0.00604899962805,9.79094851077
1609060339939463311,26970,1609060339939463311,0.0140911566629,-0.0357805030228,0.362708085048,0.931109037625,-0.00312880682759,0.00226772157475,-0.00245003029704,0.744973242871,-0.00527908014692,9.79058281088
1609060339941921799,26971,1609060339941921799,0.014089927247,-0.0357809138194,0.362710894166,0.931107946164,-0.00232540117577,0.00263110245578,-0.000678571406752,0.747503859803,-0.00426909252768,9.79036315727
1609060339942684877,26972,1609060339942684877,0.0140898770194,-0.0357837977916,0.36271367127,0.931106754274,-0.00176735711284,0.00188576825894,-0.00120385678019,0.749995190285,-0.00308848177688,9.78951024699
1609060339946953874,26973,1609060339946953874,0.0140879227814,-0.0357847837921,0.362713595267,0.931106775557,-0.00216854852624,0.00177778839134,-0.00242378283292,0.752679520927,-0.00177404699335,9.78890853631
1609060339950755776,26974,1609060339950755776,0.0140850986675,-0.0357842825991,0.362713314225,0.931106947025,-0.00140880537219,0.00237438618205,-0.00134693807922,0.755377360851,-0.000308554715943,9.78772672981
1609060339952463258,26975,1609060339952463258,0.0140833334136,-0.0357862971462,0.36271075932,0.931107891563,-0.0015279839281,0.00196411041543,-0.00239127478562,0.758445136003,0.00134250761708,9.78674004114
1609060339954539807,26976,1609060339954539807,0.0140823047887,-0.0357861790735,0.362707712965,0.931109098353,-0.00145931891166,0.00199416675605,-0.00427764561027,0.76213711296,0.00371254209895,9.78493315655
1609060339955289903,26977,1609060339955289903,0.0140831651329,-0.035784448128,0.362705912105,0.931109853377,7.41023977753e-05,0.00300770136528,-0.00403701281175,0.76458769653,0.00532971713087,9.78389505959
1609060339959556924,26978,1609060339959556924,0.0140818447446,-0.0357853154146,0.36270593301,0.931109831872,-0.000344119034708,0.00224893004633,-0.00424576178193,0.767483210094,0.00748401843617,9.78269105405
1609060339961905572,26979,1609060339961905572,0.0140791123556,-0.0357849233573,0.362700304142,0.931112080918,-0.00193945749197,0.00227241683751,-0.00582693517208,0.770236547604,0.00991290956922,9.78213023633
1609060339964525765,26980,1609060339964525765,0.0140769335016,-0.0357852012901,0.362699341714,0.931112478078,-0.00159528036602,0.00293447216973,-0.00462523754686,0.772166403159,0.0124301815219,9.78169092911
1609060339966931268,26981,1609060339966931268,0.0140774907261,-0.0357859199503,0.36269507449,0.931114104248,-0.000508126046043,0.00204211403616,-0.00405624089763,0.773852434449,0.0144972247384,9.78200638908
1609060339970742335,26982,1609060339970742335,0.0140797245284,-0.0357883088976,0.362690687613,0.931115687453,-0.000412874156609,0.000829442578834,-0.00579033000395,0.774726156324,0.015988950579,9.78223947895
1609060339972474167,26983,1609060339972474167,0.0140810321177,-0.0357900928413,0.362690237858,0.931115774301,-0.000225075375056,0.00032289873343,-0.00417057005689,0.774858401231,0.0167594359894,9.78281256455
1609060339974543894,26984,1609060339974543894,0.0140785640925,-0.0357877123531,0.36269189083,0.931115259247,3.42461862601e-05,0.00138738250826,-0.00195364351384,0.773952111036,0.0167183148335,9.78341836452
1609060339976850389,26985,1609060339976850389,0.0140796150135,-0.0357885915722,0.362690535037,0.931115737677,5.56090089958e-05,0.00176263041794,-0.00233537168242,0.772815432832,0.0161699293046,9.78410770297
1609060339979461086,26986,1609060339979461086,0.0140806393699,-0.0357894122727,0.362681270965,0.931119299153,0.000334693322657,0.00139238336124,-0.00462936749682,0.770853520118,0.0149340080889,9.78489051104
1609060339981024069,26987,1609060339981024069,0.0140802810973,-0.0357890961094,0.362678615086,0.931120351213,-3.94156086259e-05,0.00204330100678,-0.00518698897213,0.768478077359,0.0134046890228,9.78565404099
1609060339982679487,26988,1609060339982679487,0.0140812262366,-0.0357895662787,0.362680245148,0.931119683925,9.75541188382e-05,0.0019121915102,-0.00365705229342,0.765966738537,0.0114487368227,9.78632877481
1609060339987311430,26989,1609060339987311430,0.0140820565562,-0.0357895521825,0.362679420581,0.931119993086,0.000527266354766,0.00162482040469,-0.00288902129978,0.763494321048,0.00925988644408,9.78667928588
1609060339991271266,26990,1609060339991271266,0.0140826662719,-0.0357899665182,0.362677475226,0.931120725669,8.30334902275e-05,0.0019508220721,-0.00258657988161,0.760791077413,0.00662067497475,9.7868633042
1609060339992693285,26991,1609060339992693285,0.0140841322764,-0.0357896229728,0.362680954519,0.931119361486,0.000437805399997,0.00198302580975,-0.000752929481678,0.759212682232,0.00477695934149,9.78703388625
1609060339994465603,26992,1609060339994465603,0.0140838296979,-0.0357902698451,0.362679875994,0.931119761295,0.000181241455721,0.00178733025678,-0.000431204447523,0.756904055648,0.0022649952583,9.78717525905
1609060339996956747,26993,1609060339996956747,0.0140845213119,-0.0357916667315,0.362678919006,0.931120069895,-0.000432618195191,0.00125087611377,-0.00230493093841,0.755442935631,0.000889654611703,9.78689543438
1609060339998660981,26994,1609060339998660981,0.0140846975949,-0.0357934472123,0.362681804854,0.931118874719,-0.000287847826257,0.000659978133626,6.49257563055e-05,0.753764279678,-0.000925874089357,9.78664540315
1609060340001867790,26995,1609060340001867790,0.0140858971555,-0.0357938797531,0.362686095914,0.931117168515,0.00012772095215,0.000944743631408,0.00230125896633,0.752830240689,-0.00191990158847,9.78598585814
1609060340004492138,26996,1609060340004492138,0.0140883784396,-0.0357929446392,0.362691091565,0.931115221015,0.00113031791989,0.00113865640014,0.00231337500736,0.751743072174,-0.00301921020029,9.78515339434
1609060340006898140,26997,1609060340006898140,0.0140895089214,-0.0357927376049,0.362694621626,0.93111383682,0.00118499970995,0.00138753000647,0.0019846376963,0.75067963618,-0.00389787939331,9.78398151898
1609060340010811263,26998,1609060340010811263,0.014087046491,-0.0357957023914,0.362693307541,0.931114271976,-0.000380780082196,0.0014545340091,0.000263416586677,0.749523825914,-0.00479260454932,9.78317826444
1609060340012359859,26999,1609060340012359859,0.0140865329601,-0.0357972911407,0.362700180922,0.931111541275,-0.00119815510698,0.00102363550104,0.00173237628769,0.748791988,-0.00517016156903,9.78236741549
1609060340015080294,27000,1609060340015080294,0.0140902685209,-0.0357948579131,0.362704445382,0.931109917131,0.000518638989888,0.0020561972633,0.00181806029286,0.748098925374,-0.00580382443406,9.78184924328
1609060340015388824,27001,1609060340015388824,0.0140907915691,-0.0357941177167,0.362704967731,0.931109734195,0.00113753811456,0.00277330051176,-0.000936673372053,0.747620842874,-0.00608085140912,9.78143213511
1609060340019517022,27002,1609060340019517022,0.0140896375359,-0.0357957098174,0.362709163273,0.931108056109,-6.7053741077e-05,0.00212447228841,0.000896875280887,0.74726405181,-0.00670167132933,9.78196199101
1609060340021965324,27003,1609060340021965324,0.0140900377722,-0.0357959201482,0.362711371895,0.931107181604,-0.000223254290177,0.00178830081131,0.00162302027456,0.746920477934,-0.00715305018006,9.78238143593
1609060340024478412,27004,1609060340024478412,0.0140891253887,-0.0357957801323,0.362714984698,0.931105793423,-0.00062993413303,0.00213364791125,0.000170273793628,0.746425527088,-0.00751860402105,9.78345224726
1609060340027230917,27005,1609060340027230917,0.0140884172049,-0.0357955133953,0.362719685912,0.931103983008,-0.000931947783101,0.00247207144275,0.0012515860144,0.746026674695,-0.00736098813638,9.78379925323
1609060340031993053,27006,1609060340031993053,0.0140885869964,-0.0357958085462,0.362724960078,0.931101914477,-0.000553076853976,0.0021211814601,0.00205470155925,0.745402034752,-0.00625803749543,9.78446171916
1609060340033824217,27007,1609060340033824217,0.0140885515915,-0.0357965428646,0.362728382118,0.931100553667,-0.000469020218588,0.00165056262631,0.00150960171595,0.744894742996,-0.00511385616381,9.78467903602
1609060340034568123,27008,1609060340034568123,0.0140868839216,-0.0357979650253,0.362728295886,0.931100557816,-0.00108597928192,0.00148594705388,0.00054080132395,0.744535615191,-0.00273575262493,9.7851078279
1609060340037081427,27009,1609060340037081427,0.0140838469496,-0.0357997746997,0.362729811002,0.931099943936,-0.0023920640815,0.00152120972052,-0.000234927603742,0.744479460396,-0.000828369941097,9.78521064448
1609060340039353242,27010,1609060340039353242,0.0140837715812,-0.0357996570323,0.362731177307,0.931099417326,-0.00185465347022,0.00155247095972,-0.00132494524587,0.744924390391,0.00271262254519,9.78540985161
1609060340042012588,27011,1609060340042012588,0.0140829698105,-0.0357989456443,0.362732306978,0.931099016714,-0.000662146601826,0.00216690194793,-0.00154254504014,0.745702305906,0.0049855773258,9.78530002481
1609060340044464035,27012,1609060340044464035,0.0140834570429,-0.0357977597323,0.36273522974,0.931097916302,-0.000391651439713,0.00283602112904,-0.00108054431621,0.747522407681,0.00838364527049,9.7847543959
1609060340045391703,27013,1609060340045391703,0.0140813722303,-0.0357988633942,0.362733728369,0.9310984903,-0.00117582315579,0.00234507513233,-0.00216679251753,0.749056185722,0.0106237122542,9.78433845609
1609060340050952271,27014,1609060340050952271,0.0140772024299,-0.0358017316738,0.362732500553,0.931098921395,-0.00246643275023,0.00215375772677,-0.0027668280527,0.751869402207,0.0138564010416,9.78368416876
1609060340053286080,27015,1609060340053286080,0.0140749320949,-0.035801642942,0.362732487892,0.931098964062,-0.00233828136697,0.00262615620159,-0.0021345987916,0.754028623447,0.0158458160958,9.78355155873
1609060340053776329,27016,1609060340053776329,0.0140755313251,-0.0358004248201,0.362732596194,0.931098959649,-0.00171883706935,0.00247395713814,-0.00267042918131,0.757565718323,0.0188352100351,9.78339090782
1609060340056982879,27017,1609060340056982879,0.0140761573106,-0.0357997316508,0.362730414047,0.931099826944,-0.000588755530771,0.00227885041386,-0.00364675372839,0.759896909058,0.0205958983577,9.78349430859
1609060340059476517,27018,1609060340059476517,0.0140750743012,-0.0357985953989,0.362728465958,0.931100645921,0.000155263784109,0.00299334758893,-0.0035417790059,0.76322114148,0.022973111927,9.78313853985
1609060340061011498,27019,1609060340061011498,0.0140737139535,-0.0357977168212,0.362723911184,0.931102474651,-0.000596781028435,0.00334983342327,-0.00453972024843,0.765653542288,0.024348256324,9.78296211594
1609060340064361173,27020,1609060340064361173,0.0140725144725,-0.0357980021819,0.362719280335,0.931104285808,-0.000331884599291,0.00293639418669,-0.00621549040079,0.767658100516,0.0252450261279,9.78249359947
1609060340067059065,27021,1609060340067059065,0.0140710795023,-0.035797884714,0.362713873196,0.931106418388,-0.000484462594613,0.00266323634423,-0.00657764868811,0.769394590795,0.025430468393,9.78258005887
1609060340070710482,27022,1609060340070710482,0.0140703665207,-0.035798180549,0.362713195791,0.931106681672,-0.00142033153679,0.0023000035435,-0.00579289859161,0.770851621516,0.0248286390533,9.78265775549
1609060340072404351,27023,1609060340072404351,0.0140708498932,-0.0357978025467,0.362708074971,0.931108683703,-0.000663171638735,0.00211844220757,-0.00569106871262,0.771697740644,0.0240723475157,9.78342887986
1609060340074537590,27024,1609060340074537590,0.0140718594574,-0.0357953389717,0.362704218938,0.931110265245,2.55846534856e-05,0.00260865222663,-0.00554904993623,0.772097615361,0.0223374272338,9.78450027537
1609060340076841918,27025,1609060340076841918,0.0140740759398,-0.0357958742727,0.36270161821,0.931111224247,0.000580873456784,0.00201724050567,-0.00447251647711,0.771577398509,0.0202180766291,9.78575452083
1609060340079328063,27026,1609060340079328063,0.0140720003077,-0.0357994201308,0.362695867746,0.931113359289,-0.000196812208742,0.000691952649504,-0.00521504506469,0.770432322644,0.0178667771467,9.78654433912
1609060340080956404,27027,1609060340080956404,0.0140712678263,-0.0358003463032,0.362690417964,0.931115457579,-0.00140063534491,0.000973462942056,-0.00641448888928,0.769215684101,0.0158177158786,9.7874562521
1609060340085000471,27028,1609060340085000471,0.0140714989111,-0.0357976447319,0.362686041234,0.931117262779,-0.000453612825368,0.00185976573266,-0.00592389982194,0.766834545538,0.0125138249653,9.78827527964
1609060340086948404,27029,1609060340086948404,0.0140700038943,-0.0357980224289,0.362685595576,0.931117444441,-0.000574573932681,0.00217487872578,-0.00375692220405,0.76477952832,0.0096364393956,9.78898798549
1609060340092050160,27030,1609060340092050160,0.0140720826098,-0.035801292332,0.362683834408,0.931117973308,-0.000724776880816,0.00122116401326,-0.00311100529507,0.76265470098,0.0067374389763,9.78844235659
1609060340093574996,27031,1609060340093574996,0.0140732390386,-0.0358027859739,0.362682718155,0.931118333195,8.99330480024e-05,0.000420894939452,-0.00342427985743,0.761146627083,0.00462614373676,9.78803926885
1609060340094450755,27032,1609060340094450755,0.0140751676279,-0.0358003816127,0.362680974519,0.931119075658,0.000847981194966,0.0016572206514,-0.00172571931034,0.758852970243,0.00145313767483,9.78619382805
1609060340095353045,27033,1609060340095353045,0.0140764594441,-0.0358005851303,0.362680567729,0.931119206754,0.00109653978143,0.00211726431735,-0.00144285301212,0.757261138804,-0.000825868898537,9.7846013394
1609060340099537236,27034,1609060340099537236,0.014073704926,-0.035805373849,0.362680551128,0.931119070724,-0.000730895088054,0.00065042776987,-0.00116015796084,0.755661566913,-0.00261489932751,9.78240012985
1609060340101760172,27035,1609060340101760172,0.0140754735797,-0.0358054484223,0.362681536507,0.931118657306,-0.000511022692081,0.000629437854514,-0.000558240979444,0.754331523433,-0.00390430086572,9.78069080418
1609060340104533974,27036,1609060340104533974,0.0140774799566,-0.0358045529306,0.362681636508,0.931118622458,0.000502972048707,0.00133674405515,-0.00115760508925,0.75310137561,-0.00502158229798,9.77917718053
1609060340107036473,27037,1609060340107036473,0.0140780784607,-0.0358049760879,0.362684836763,0.931117350593,5.2258343203e-05,0.0013774324907,-0.000197546498384,0.752034653574,-0.00583077453682,9.77804970324
1609060340110732964,27038,1609060340110732964,0.0140789277762,-0.0358078320269,0.362684553369,0.931117338312,0.000478058500448,0.000991862267256,-0.000589995936025,0.750938138098,-0.00639918666193,9.77694091988
1609060340112463938,27039,1609060340112463938,0.0140823100369,-0.0358090518916,0.362685715904,0.931116787426,0.0013662702404,0.000289117597276,-0.00148895161692,0.749948382452,-0.00673751199944,9.77627845395
1609060340114596311,27040,1609060340114596311,0.0140816955685,-0.0358089204221,0.362688407994,0.931115753156,0.000672003487125,0.00109946052544,3.79605044145e-05,0.748863039516,-0.0067347964514,9.77577547055
1609060340117232565,27041,1609060340117232565,0.0140805295046,-0.0358100059013,0.362690314339,0.931114986482,-0.000990313710645,0.00181061448529,0.000411923188949,0.747664583735,-0.00655200127512,9.77601849157
1609060340119497965,27042,1609060340119497965,0.0140784121333,-0.0358107032169,0.362695983314,0.931112783467,-0.0015013825614,0.0019478269387,0.00187458493747,0.746473430268,-0.00579959365586,9.77673762345
1609060340121042107,27043,1609060340121042107,0.0140755940192,-0.0358122263321,0.362699590416,0.931111362411,-0.00215263175778,0.00202439422719,0.00262220529839,0.745499958783,-0.00484781917138,9.77779967201
1609060340124542025,27044,1609060340124542025,0.0140774386628,-0.0358122814453,0.36270010184,0.931111133186,-0.00186203280464,0.00205913884565,0.000870974326972,0.744676476829,-0.0035791105656,9.77900659847
1609060340126955933,27045,1609060340126955933,0.0140735745581,-0.035812525286,0.362704039846,0.931109648222,-0.00206118961796,0.00268971268088,0.00102375459392,0.744030514129,-0.00217011537915,9.78051788539
1609060340131646658,27046,1609060340131646658,0.0140712603855,-0.0358123128142,0.36270599435,0.93110893001,-0.0026419069618,0.00302706612274,0.00025903142523,0.743452462949,-0.00091997290682,9.78243284422
1609060340133239419,27047,1609060340133239419,0.0140698984093,-0.0358094070455,0.362709489798,0.931107700718,-0.00126104278024,0.00383724155836,-1.05937942863e-08,0.74330181621,0.000580191670451,9.78414041734
1609060340134546573,27048,1609060340134546573,0.0140691087718,-0.035809008218,0.362713404259,0.931106203115,-0.000844162423164,0.00410901103169,0.000973120797426,0.743682339795,0.00205350198783,9.78637784636
1609060340136881273,27049,1609060340136881273,0.0140685719466,-0.0358091495216,0.362714349692,0.931105837497,-0.00102013361175,0.0028522326611,-0.000104017206468,0.744608638331,0.00360102207167,9.78861235446
1609060340139480180,27050,1609060340139480180,0.0140676220388,-0.0358109331481,0.362713389903,0.931106157139,-0.000180608418304,0.00212158635259,-0.00139326474164,0.745872741915,0.00470828107791,9.79070490557
1609060340141762968,27051,1609060340141762968,0.0140691572069,-0.0358099942608,0.362713737869,0.931106034503,0.000738492992241,0.00222434522584,-0.00166892656125,0.747636250757,0.00575733151333,9.79229564166
1609060340144426451,27052,1609060340144426451,0.0140668901226,-0.0358060029476,0.362713947746,0.931106140494,0.000529286917299,0.0030339313671,-0.00284810597077,0.750016147926,0.00660383857694,9.79322916949
1609060340147038422,27053,1609060340147038422,0.0140655047255,-0.035806412004,0.362713176776,0.931106446025,-0.000772873638198,0.00295365275815,-0.00329134846106,0.752962631643,0.00775095452601,9.79350198394
1609060340150882631,27054,1609060340150882631,0.0140638805169,-0.0358105852533,0.362715573011,0.931105376606,-0.00165616429877,0.00126111472491,-0.00182789051905,0.756149653584,0.008951258705,9.79337521577
1609060340152461293,27055,1609060340152461293,0.0140629473791,-0.0358119241244,0.362711632789,0.931106874124,-0.00167474360205,0.00084934750339,-0.00317709660158,0.759493821323,0.00994419542095,9.79289793652
1609060340153321057,27056,1609060340153321057,0.0140631973836,-0.0358077670734,0.36270986046,0.931107720633,-0.00128684542142,0.00234490772709,-0.00382864382118,0.763155493677,0.0110133911152,9.79245278746
1609060340155351817,27057,1609060340155351817,0.0140613072458,-0.0358071906146,0.362708163439,0.931108432415,-0.0013303454034,0.00319838291034,-0.00290154013783,0.766370118365,0.0119342859392,9.79174884439
1609060340159538628,27058,1609060340159538628,0.0140604854612,-0.0358081888706,0.362705969754,0.93110926097,-0.00120289740153,0.00286087021232,-0.00448006391525,0.769619502068,0.0126604280476,9.7912850014
1609060340161845181,27059,1609060340161845181,0.0140599993461,-0.0358073288317,0.362699712213,0.931111738934,-0.000713437504601,0.00276115466841,-0.006442992948,0.772277836472,0.0135180346286,9.79071425253
1609060340164547745,27060,1609060340164547745,0.0140609730322,-0.0358071736052,0.362694334806,0.931113824865,-7.43853161111e-05,0.00264528836124,-0.00718090310693,0.774230840363,0.0144136041147,9.79028195554
1609060340167323032,27061,1609060340167323032,0.0140623076287,-0.0358056507148,0.362688254529,0.931116231685,0.000702685443684,0.0026298162993,-0.00713158166036,0.77562477909,0.0151177069265,9.78956924969
1609060340170910038,27062,1609060340170910038,0.0140607692858,-0.0358048130895,0.362688718582,0.931116106369,0.000482747709611,0.00288366735913,-0.00566391972825,0.776390645787,0.0155331949037,9.78914162618
1609060340172349127,27063,1609060340172349127,0.0140613831392,-0.0358036094994,0.362688257289,0.931116323064,0.000260174478171,0.00287010287866,-0.00324344262481,0.776538006485,0.0156094675739,9.78866785204
1609060340174582120,27064,1609060340174582120,0.0140619483048,-0.0358039006195,0.362679848371,0.931119578731,0.000448674487416,0.00236966833472,-0.00492743123323,0.776037432857,0.0152488519228,9.78846338725
1609060340176883948,27065,1609060340176883948,0.0140637984766,-0.035801896466,0.362677921967,0.9311203782,0.00100123183802,0.00248664035462,-0.00557833630592,0.774651453651,0.0143536886279,9.78828637916
1609060340180143386,27066,1609060340180143386,0.0140637852466,-0.0358013984557,0.362674843721,0.931121596541,0.000693347654305,0.002489016857,-0.00369133986533,0.772739634812,0.0129119973304,9.78848792303
1609060340181798311,27067,1609060340181798311,0.0140652280566,-0.0358017788795,0.362670277403,0.931123338703,0.000152263994096,0.00165928597562,-0.00478664552793,0.770298179135,0.0111906502247,9.78870231897
1609060340184382407,27068,1609060340184382407,0.0140668080403,-0.0357997117541,0.362667958728,0.931124297429,0.00112249259837,0.00232788966969,-0.00428094808012,0.767391200937,0.00903223223984,9.78899207479
1609060340185281519,27069,1609060340185281519,0.0140659504322,-0.0358000208037,0.362665720222,0.931125170385,0.000313817698043,0.00268925144337,-0.00325924670324,0.764208706431,0.00640687691141,9.78932622868
1609060340190995142,27070,1609060340190995142,0.0140659364648,-0.0358000412858,0.362663512745,0.9311260296,-0.000487767043523,0.00200439570472,-0.00405807001516,0.760726013795,0.00350328516215,9.78941385645
1609060340192793026,27071,1609060340192793026,0.0140678666558,-0.0357995815549,0.362661813912,0.931126679791,0.000671526184306,0.00188490503933,-0.00386312161572,0.757311232679,0.000223131333478,9.78960605335
1609060340194579071,27072,1609060340194579071,0.0140700331458,-0.035799398471,0.362663395391,0.931126038128,0.0005567689077,0.00156056997366,-0.00187464570627,0.754104129374,-0.0029107160694,9.78928124642
1609060340196848589,27073,1609060340196848589,0.014070553357,-0.0357998439648,0.362662623445,0.931126313803,-8.4953266196e-05,0.00142846337985,-0.00146505737212,0.751034674689,-0.00603492898168,9.78898097527
1609060340199385197,27074,1609060340199385197,0.0140707925332,-0.0358006249572,0.362658732173,0.931127795756,0.000291644711979,0.00129230949096,-0.00279775680974,0.748387731895,-0.0086810822133,9.78833136141
1609060340201924280,27075,1609060340201924280,0.0140711646897,-0.0358028954607,0.362663353385,0.931125902933,6.06843677815e-05,0.000633113260847,-0.000469434773549,0.746165929824,-0.0110751276165,9.78721439946
1609060340204547938,27076,1609060340204547938,0.0140711837286,-0.0358043302792,0.362666196779,0.931124739998,-0.000657176191453,0.000506948737893,0.000891436240636,0.744416149333,-0.0126311959717,9.78605771291
1609060340207446975,27077,1609060340207446975,0.0140702117114,-0.035804869672,0.362667094596,0.931124384251,-0.000968306092545,0.00134673877619,-0.000713201938197,0.743145473666,-0.0134802086418,9.78487473804
1609060340210655347,27078,1609060340210655347,0.0140709899435,-0.03580486296,0.362666989008,0.931124413875,-0.000868010451086,0.00151573051699,0.000311301788315,0.742432329677,-0.0137282636859,9.78357667869
1609060340212347800,27079,1609060340212347800,0.0140722156824,-0.0358053138232,0.362670605601,0.931122969366,8.63775494508e-06,0.00123220460955,0.00147196941543,0.742002734542,-0.0133099734457,9.78244043863
1609060340214694421,27080,1609060340214694421,0.0140725793552,-0.035806531211,0.362674718946,0.931121314905,0.000114947528346,0.0017331764102,0.00115034659393,0.741627322577,-0.0123440872394,9.78099458045
1609060340215367796,27081,1609060340215367796,0.0140704467785,-0.0358066469989,0.362678115138,0.931120019846,-0.00109128083568,0.00234379456379,0.00107610272244,0.741363928109,-0.011217974571,9.78011655021
1609060340217706056,27082,1609060340217706056,0.0140691447366,-0.0358074932753,0.362680645485,0.931119021384,-0.00108963879757,0.00232479674742,0.0010795162525,0.741033352353,-0.0100937513765,9.77935068351
1609060340221279418,27083,1609060340221279418,0.01407162881,-0.0358071775848,0.362685012907,0.931117294818,0.000708513136487,0.00181396258995,0.00143016478978,0.740956678055,-0.00886667508865,9.77955631667
1609060340224508992,27084,1609060340224508992,0.0140725064525,-0.0358075050964,0.362688813909,0.931115788399,0.000523390539456,0.00188240851276,0.00151541491505,0.740947623186,-0.00733248629188,9.78016679013
1609060340227268001,27085,1609060340227268001,0.0140717129281,-0.0358071033809,0.36269202583,0.931114564724,-0.000704301754013,0.00239266850986,0.00108099682257,0.741229346462,-0.00550589914899,9.78084561324
1609060340231954654,27086,1609060340231954654,0.0140695271177,-0.0358079898829,0.362699015499,0.931111840985,-0.000461820571218,0.00211117533036,0.00277206953615,0.741496903248,-0.00363284190511,9.781397084
1609060340233552601,27087,1609060340233552601,0.0140691255079,-0.0358087688424,0.362704079855,0.931109844346,-0.000457239948446,0.00161404057872,0.00355417747051,0.742060422823,-0.00199454036588,9.78208291733
1609060340235584069,27088,1609060340235584069,0.0140689440214,-0.0358082898142,0.362703218754,0.931110200943,-0.000944537634496,0.0021671638824,0.000522752292454,0.742638254933,-0.000368944853079,9.78294867969
1609060340236754812,27089,1609060340236754812,0.0140686823357,-0.0358068963727,0.362706816031,0.931108857199,-0.000601084437221,0.00295586464927,-0.000122566707432,0.743477071747,0.00111984637007,9.78409718764
1609060340239466611,27090,1609060340239466611,0.0140698842423,-0.0358059505042,0.362709181974,0.931107953772,0.000289838819299,0.00284137669951,-0.000469490070827,0.744778928295,0.00230239223409,9.78493607748
1609060340242081169,27091,1609060340242081169,0.0140692306134,-0.0358059829517,0.362706926807,0.931108840889,-0.000160210533068,0.00236763455905,-0.00296040670946,0.746478541888,0.00335107298987,9.78625224656
1609060340244542164,27092,1609060340244542164,0.0140669744219,-0.0358078943017,0.362709374957,0.931107847811,-0.00100513105281,0.00211421749555,-0.00226298929192,0.748429428108,0.00428075341042,9.78696027893
1609060340247013020,27093,1609060340247013020,0.0140658622681,-0.0358069973302,0.362708244381,0.931108339517,-0.001022311626,0.00252539664507,-0.00178306724411,0.750781722531,0.00515974207968,9.78793411553
1609060340250954465,27094,1609060340250954465,0.0140672006978,-0.0358040582679,0.362709789632,0.931107830373,-0.000266291608568,0.00310126319528,-0.00265004858375,0.753263194889,0.005809351373,9.78847857606
1609060340252954652,27095,1609060340252954652,0.0140659206617,-0.0358035137364,0.362709650708,0.931107924767,-0.000363525818102,0.00299490732141,-0.00222239177674,0.75630256404,0.0064076847299,9.78895527112
1609060340254501141,27096,1609060340254501141,0.0140632771065,-0.0358043971018,0.362706717437,0.93110907337,-0.00145827280357,0.00300510064699,-0.00336685054936,0.759541359387,0.00704895569338,9.78910599089
1609060340256850822,27097,1609060340256850822,0.0140624617738,-0.0358033835233,0.362704200113,0.93111010526,-0.00125697965268,0.00311226234771,-0.00439610797912,0.762915174522,0.00760795239732,9.78907444489
1609060340257709965,27098,1609060340257709965,0.0140625551976,-0.0358010800057,0.362704496921,0.931110076804,-0.000685393577442,0.00336224911734,-0.00318924617022,0.766095551357,0.00786430469574,9.78925904739
1609060340261172277,27099,1609060340261172277,0.0140619914992,-0.0357999736908,0.362700135126,0.931111826935,-0.000608201953582,0.00336052500643,-0.00397770432755,0.769057662025,0.00826748370985,9.78913812107
1609060340264541070,27100,1609060340264541070,0.0140611751812,-0.0358007669851,0.36269381616,0.931114270192,-0.000524375238456,0.00256181601435,-0.00636919587851,0.771432520598,0.00875121637573,9.78869238782
1609060340267073775,27101,1609060340267073775,0.0140605736401,-0.0358006246599,0.36269071089,0.931115494328,-0.000657422759105,0.00220665545203,-0.00582030555233,0.773238894023,0.00938262008736,9.78797033501
1609060340270798461,27102,1609060340270798461,0.0140590173052,-0.0357987406671,0.362691430545,0.931115309942,-0.000735371897463,0.00273527856916,-0.00449597276747,0.774204332963,0.00969298668997,9.78683701587
1609060340272467737,27103,1609060340272467737,0.0140611675259,-0.0357975858264,0.362690792051,0.931115570581,0.000476356886793,0.00271386560053,-0.00348914368078,0.77442610424,0.00968032173906,9.78541510928
1609060340274462475,27104,1609060340274462475,0.0140616162629,-0.0357965403811,0.362685155379,0.93111779959,0.00081049837172,0.00259520183317,-0.00371291302145,0.774127220526,0.00947473421507,9.78373557705
1609060340277002433,27105,1609060340277002433,0.0140603238207,-0.0357950445231,0.362680277672,0.931119776543,-0.000493617262691,0.00322402897291,-0.00549954548478,0.773061228722,0.00924123815959,9.78170903885
1609060340277700848,27106,1609060340277700848,0.0140591754553,-0.0357949529725,0.362678093633,0.931120648104,-0.000288091192488,0.00294606946409,-0.0044748657383,0.771249962747,0.00873216646397,9.78002074385
1609060340281891650,27107,1609060340281891650,0.0140608287475,-0.0357941965262,0.36267620594,0.931121387487,0.000752002932131,0.00224215909839,-0.00320987054147,0.768748920187,0.00830797504121,9.77841598731
1609060340284583471,27108,1609060340284583471,0.0140644502715,-0.0357951351307,0.362674963361,0.931121780698,0.0010712381918,0.00140911201015,-0.00365058099851,0.765789657421,0.00787817909243,9.77784290171
1609060340287044913,27109,1609060340287044913,0.0140654496745,-0.0357981393291,0.362674248154,0.931121928682,0.000302637869027,0.000100752629805,-0.00309103541076,0.762482804507,0.00737773325527,9.77737146431
1609060340292102215,27110,1609060340292102215,0.0140640158038,-0.0357969803906,0.362673968538,0.931122103808,-3.29811591655e-05,0.000673964677844,-0.00186251965351,0.758927307799,0.00654212945933,9.77716641533
1609060340293676903,27111,1609060340293676903,0.014064077407,-0.0357963528121,0.362675524945,0.931121520779,0.000180261646165,0.00216636247933,-0.000925478991121,0.755336175799,0.00573608177947,9.77749881667
1609060340294509597,27112,1609060340294509597,0.0140658774706,-0.0357947251962,0.36267568329,0.931121494483,0.000227349781198,0.00227148318663,-0.000311414536554,0.752189608678,0.00468560739281,9.77816946119
1609060340296800364,27113,1609060340296800364,0.0140677824071,-0.0357953277723,0.362678572541,0.93112031716,0.000758732378017,0.00154373934492,0.000267259398242,0.749257437497,0.00355754591944,9.77853224015
1609060340299379448,27114,1609060340299379448,0.0140695454163,-0.0357994597567,0.362677154635,0.93112068395,0.000568775343709,0.000568246352486,-0.000427836901508,0.747225933731,0.00234279685048,9.77912694061
1609060340301861183,27115,1609060340301861183,0.0140712103258,-0.0357982670515,0.362678004479,0.931120373627,0.000704462290742,0.00127255462576,-0.00133760436438,0.745687920347,0.000928658096585,9.7793588621
1609060340304487989,27116,1609060340304487989,0.0140697735611,-0.0357964749497,0.362683129945,0.931118467815,0.000517761684023,0.00229605659842,0.000583822489716,0.744762498088,-0.00080736666033,9.78029238993
1609060340306895359,27117,1609060340306895359,0.0140698072556,-0.0357965312028,0.362686188396,0.93111727383,-0.000234225357417,0.00206817709841,0.00156932102982,0.743902066424,-0.00284220210789,9.78106935614
1609060340310864943,27118,1609060340310864943,0.0140728307442,-0.0357982367566,0.362689187776,0.931115994251,0.000687755527906,0.00183156994171,0.00118347769603,0.743388932817,-0.00535337206442,9.78241531867
1609060340312392816,27119,1609060340312392816,0.0140726947531,-0.0357979155617,0.362691008534,0.93111529943,0.000659078068566,0.00199732463807,0.00065900478512,0.742658774436,-0.00808287664689,9.78334358883
1609060340314478595,27120,1609060340314478595,0.0140731461106,-0.0357965589489,0.362694976898,0.931113798984,0.000272485194728,0.00241648778319,0.000894409022294,0.742448832907,-0.0109547261498,9.78518669289
1609060340315327249,27121,1609060340315327249,0.0140733283051,-0.0357983147216,0.362701272121,0.931111276537,0.000163041841006,0.00159467605408,0.00281517999247,0.742148634776,-0.0124872354143,9.78609685332
1609060340317996088,27122,1609060340317996088,0.0140744090017,-0.0358008798162,0.362705192425,0.93110963447,-0.000462606956717,0.00056610518368,0.00239133206196,0.741941322081,-0.0139916535895,9.78755381101
1609060340320986336,27123,1609060340320986336,0.0140760233026,-0.0358006254893,0.36270690474,0.931108952828,0.000286613008939,0.00110832008068,0.000391262932681,0.741702901527,-0.0149488317864,9.78854809409
1609060340324508785,27124,1609060340324508785,0.0140762195384,-0.0357972916096,0.362706521045,0.931109227507,0.000578682287596,0.00221954355948,-0.000625586544629,0.741330629557,-0.0151141424845,9.78951258373
1609060340327102154,27125,1609060340327102154,0.0140759988142,-0.0357993330573,0.362712957873,0.931106644913,-0.000359380414011,0.00162963953335,0.00144942826591,0.740921188809,-0.014580420915,9.79030240202
1609060340331744402,27126,1609060340331744402,0.0140760729094,-0.0358036510343,0.362718905189,0.931104160963,-0.000521541107446,0.000545127608348,0.00198194384575,0.740829179652,-0.0130819449979,9.7910297125
1609060340333359495,27127,1609060340333359495,0.014075572688,-0.0358031406966,0.362721525312,0.931103167455,-0.000318696489558,0.00153632112779,0.000318005739246,0.74088679491,-0.0117064902526,9.79112610304
1609060340334466576,27128,1609060340334466576,0.0140733759757,-0.0358006340487,0.362723076825,0.931102692633,-0.00131642806809,0.00274723465554,0.0012291186722,0.741659452759,-0.00930014501419,9.79140592772
1609060340335724080,27129,1609060340335724080,0.01407045639,-0.0358010841949,0.362726269235,0.931101475799,-0.00234793266281,0.00274229235947,0.0015187083045,0.742456281267,-0.00758869254403,9.79160221392
1609060340339459481,27130,1609060340339459481,0.0140713935959,-0.0358022154628,0.362728488545,0.931100553565,-0.0015471004881,0.0028698972892,9.18265141081e-05,0.743756896421,-0.00515134898247,9.79166004825
1609060340341914829,27131,1609060340341914829,0.0140695270394,-0.0358055685744,0.362728638618,0.931100394369,-0.00162545009516,0.00163282034919,-0.0011935972143,0.745531577803,-0.00282100714138,9.79173482394
1609060340344482991,27132,1609060340344482991,0.0140678238101,-0.0358078669,0.362729336216,0.931100059956,-0.00251998030581,0.000540804408956,-0.00196902779862,0.747658303745,-0.000630723683629,9.79102912831
1609060340346885041,27133,1609060340346885041,0.0140667971282,-0.0358053736821,0.362727831531,0.931100757527,-0.00138790882193,0.00259882025421,-0.00277177081443,0.750171030007,0.00123913423391,9.79052556074
1609060340352020626,27134,1609060340352020626,0.0140663897535,-0.0358027737627,0.36272686897,0.93110123864,-0.000595257850364,0.00301302340813,-0.00403082743287,0.752754661739,0.00306839128537,9.78979474515
1609060340352562103,27135,1609060340352562103,0.0140668717292,-0.0358035565118,0.362725062806,0.931101904881,-0.000512535683811,0.0015735932393,-0.00411706138402,0.75552012109,0.00439332314534,9.7895295251
1609060340354453907,27136,1609060340354453907,0.0140621728893,-0.0358072141087,0.362726362043,0.931101329067,-0.00153031258378,0.00226108427159,-0.00301463995129,0.75888663391,0.00591913710069,9.78886121732
1609060340356834586,27137,1609060340356834586,0.0140592866255,-0.0358070557475,0.362723815684,0.931102370716,-0.00266152247787,0.00310136703774,-0.00330834044144,0.760935371138,0.00660361494357,9.78848967558
1609060340359458270,27138,1609060340359458270,0.014059887399,-0.0358061477154,0.362720663423,0.931103624565,-0.00152892246842,0.00242271227762,-0.00379536533728,0.763250350736,0.00710302932886,9.78777638555
1609060340361807526,27139,1609060340361807526,0.0140610818555,-0.0358054661171,0.362714375763,0.931106082135,5.78246545047e-06,0.00202427711338,-0.00545067805797,0.765492088124,0.00737259425176,9.7873382467
1609060340364593558,27140,1609060340364593558,0.0140626668048,-0.0358045233141,0.362711568684,0.931107187952,0.000851410790347,0.00235144328326,-0.00620844261721,0.767287069939,0.00757158230944,9.78698598307
1609060340366842338,27141,1609060340366842338,0.0140630630067,-0.0358035490704,0.362707575478,0.931108774969,0.00063386594411,0.00257681356743,-0.0052134199068,0.768876491614,0.00758134915447,9.78734467274
1609060340370807535,27142,1609060340370807535,0.0140614444264,-0.0358044047697,0.36270326675,0.931110444936,0.000342600396834,0.00225265091285,-0.00665406230837,0.770185869545,0.00757997084269,9.78739958614
1609060340372391784,27143,1609060340372391784,0.0140648050266,-0.0358040016234,0.362701696279,0.931111021438,0.00140394479968,0.00160815264098,-0.00565862143412,0.770719449632,0.00753868538467,9.78799896008
1609060340374456338,27144,1609060340374456338,0.014067354045,-0.0358024405849,0.362698984739,0.931112099195,0.00188846199308,0.00189106632024,-0.00405147392303,0.770611083291,0.00691093283007,9.78785057706
1609060340375324335,27145,1609060340375324335,0.0140677880077,-0.03580309124,0.362696194391,0.931113154548,0.000624098349363,0.00192438345402,-0.00453412625939,0.770261521518,0.00606710023899,9.7877939111
1609060340379512344,27146,1609060340379512344,0.0140663980224,-0.0358032122681,0.362688465656,0.931116181428,-0.000140712858411,0.00174072710797,-0.00504726357758,0.769048607156,0.00478289247165,9.78724477708
1609060340381853074,27147,1609060340381853074,0.014069325067,-0.0358017860467,0.362686901435,0.931116801339,0.00110946712084,0.00215225899592,-0.00457169581205,0.767341399156,0.00342659717286,9.78688082975
1609060340384506867,27148,1609060340384506867,0.0140725937394,-0.0358032758199,0.362689333025,0.931115747507,0.00102383294143,0.00106974830851,-0.00209636264481,0.765833909445,0.00285881487234,9.78659574741
1609060340387193733,27149,1609060340387193733,0.0140727446427,-0.0358049323052,0.362686279869,0.931116870793,-0.000481824215967,0.000323929823935,-0.00266385637224,0.763993069097,0.00262932139775,9.78661327296
1609060340391110144,27150,1609060340391110144,0.0140714543402,-0.035806801369,0.362682881536,0.931118142122,-0.000733189284801,0.000582342967391,-0.00313311535865,0.76161463239,0.00218824337376,9.7866313827
1609060340392710720,27151,1609060340392710720,0.0140719581487,-0.0358078418665,0.362684007196,0.931117656034,-0.000442922493676,0.000760606548283,-0.00134387065191,0.760171476066,0.00174072105763,9.78681832194
1609060340394480385,27152,1609060340394480385,0.0140761359,-0.0358070672793,0.36268598669,0.93111685163,0.0006050610682,0.00104558863677,-0.00111403467599,0.758345824532,0.000474992708769,9.786297813
1609060340396740718,27153,1609060340396740718,0.0140759409415,-0.0358075934394,0.362684966199,0.931117231841,0.000382894009817,0.00133842974901,-0.00204328680411,0.757103554867,-0.000682684211992,9.78592919219
1609060340399481448,27154,1609060340399481448,0.0140725061635,-0.0358087693663,0.362681333597,0.931118653484,-0.00128065771423,0.00219195103273,-0.00279241218232,0.75623677019,-0.00175505641289,9.78548696405
1609060340401811487,27155,1609060340401811487,0.0140748492882,-0.0358094919077,0.362684676671,0.931117288109,-0.000292446347885,0.00175079819746,-0.00095871812664,0.755274398223,-0.0034261772898,9.7847152555
1609060340404387169,27156,1609060340404387169,0.0140793187219,-0.0358112779639,0.362688020456,0.931115849383,0.00106445024721,0.00071806932101,5.39481989108e-05,0.754573157005,-0.00478015410388,9.78415619034
1609060340407043135,27157,1609060340407043135,0.0140798202618,-0.0358123934502,0.362686483334,0.931116397634,0.000242066249484,0.000839449116029,-0.00199236464687,0.753921206407,-0.0063782655322,9.7829440062
1609060340410904910,27158,1609060340410904910,0.0140780706277,-0.0358124757695,0.362687114484,0.931116175079,0.000244309863774,0.00106805353425,-0.000800430425443,0.753304160871,-0.00805517349299,9.78212965214
1609060340412472850,27159,1609060340412472850,0.0140777789524,-0.0358132868905,0.362690934424,0.931114660345,8.03299772087e-05,0.0012966291979,0.00149130157661,0.752587657817,-0.00883145511523,9.78165821475
1609060340413334318,27160,1609060340413334318,0.0140789929918,-0.0358135544707,0.362696970231,0.931112280586,-0.000337811681675,0.00170639960561,0.00187706621364,0.751535248317,-0.00951070267567,9.78188663113
1609060340417128851,27161,1609060340417128851,0.01407864495,-0.0358147518811,0.362702057382,0.931110258173,-0.000393269292545,0.00157031323761,0.00243154307827,0.750621363714,-0.00941339934105,9.78223597383
1609060340418163397,27162,1609060340418163397,0.0140791399045,-0.0358136050239,0.362702193808,0.931110241659,-0.00043517613085,0.00234682345763,0.00165098102298,0.749011422537,-0.00876688896725,9.78350774485
1609060340420961584,27163,1609060340420961584,0.0140786333386,-0.0358119984646,0.362705372155,0.931109073019,-0.000119588949019,0.00341500295326,0.00079391838517,0.747932724707,-0.00815472685313,9.78441965783
1609060340424635246,27164,1609060340424635246,0.0140768924974,-0.0358147362674,0.362710249148,0.931107094231,-0.00119292899035,0.00229426752776,0.00148628861643,0.746178635851,-0.00709744305862,9.7866629287
1609060340427303845,27165,1609060340427303845,0.0140765493494,-0.0358169319785,0.362718773932,0.931103694107,-0.00159433297813,0.000852880359162,0.00382806453854,0.745185813233,-0.00612778246868,9.78796799827
1609060340431800504,27166,1609060340431800504,0.0140742058408,-0.0358194812437,0.362721322083,0.93110263881,-0.00215999525972,0.000662702601403,0.00285087176599,0.743985239781,-0.0046618292327,9.78976495171
1609060340433585491,27167,1609060340433585491,0.0140705796753,-0.0358226693575,0.362720157387,0.931103024683,-0.00368742737919,0.000769111153204,-0.00126254849602,0.743215867974,-0.00380965831177,9.79037834609
1609060340434732921,27168,1609060340434732921,0.0140719987836,-0.0358210001063,0.362720117919,0.931103082831,-0.00182440318167,0.00100633001421,-0.00170467700809,0.742362300485,-0.00264024292119,9.7913282311
1609060340437192943,27169,1609060340437192943,0.014070340901,-0.035821971946,0.362721331769,0.93110259763,-0.000730784668121,0.00154726102483,-0.000730079598725,0.741883049615,-0.00175611981237,9.79148479271
1609060340439540426,27170,1609060340439540426,0.0140703138736,-0.0358229653218,0.362727564709,0.931100131685,-0.000898411788512,0.00175147689879,-0.000949825625867,0.741806959502,-0.000791265057866,9.79149063456
1609060340442027304,27171,1609060340442027304,0.014070972742,-0.0358235275252,0.362728946927,0.931099561628,2.6981550036e-05,0.00156651623547,-0.000904295477085,0.742338421918,-0.000382773610298,9.79114596534
1609060340444554832,27172,1609060340444554832,0.0140678580965,-0.0358246803667,0.362727011037,0.931100318499,-0.00098607619293,0.00215885788202,-0.00169308390468,0.744101784714,0.000191982400138,9.79023405236
1609060340447242832,27173,1609060340447242832,0.0140683369703,-0.0358230200401,0.36272649937,0.931100574474,-0.000761658942793,0.00301413051784,-0.00252228835598,0.745715304025,0.000612221445423,9.78947986937
1609060340450996737,27174,1609060340450996737,0.0140671102554,-0.0358233276723,0.362724539403,0.931101344709,-0.000529891869519,0.00290781725198,-0.00334287062287,0.74871874579,0.00178572613187,9.78834012419
1609060340452664630,27175,1609060340452664630,0.0140657326551,-0.035822413206,0.36271968626,0.931103291304,-0.00140268413816,0.00290023162961,-0.00519303511828,0.750873731688,0.00284815805778,9.78735226715
1609060340454373835,27176,1609060340454373835,0.0140672564901,-0.0358216935601,0.362716199397,0.931104654301,1.39608746395e-05,0.00305484468117,-0.00638349633664,0.754552491456,0.00493264924083,9.78601915669
1609060340456984202,27177,1609060340456984202,0.0140680521559,-0.0358200864809,0.362711643065,0.931106479033,0.000929177855141,0.00299658835866,-0.00628096330911,0.757410909265,0.00694701538933,9.78506284565
1609060340457796197,27178,1609060340457796197,0.0140670387193,-0.0358197016926,0.362712470657,0.93110618676,5.54884463781e-05,0.0029413907323,-0.00500839389861,0.760265894987,0.00897387762275,9.78440271646
1609060340461810404,27179,1609060340461810404,0.0140672900481,-0.0358197867045,0.362709408946,0.931107372376,-0.000367693835869,0.00238941959105,-0.00434097647667,0.762635787986,0.0110768938637,9.78378698534
1609060340464537815,27180,1609060340464537815,0.0140697453769,-0.0358187571421,0.362704712566,0.931109204328,0.000675684656017,0.00199356256053,-0.00456110015512,0.764518762685,0.012845003163,9.7836783269
1609060340466924861,27181,1609060340466924861,0.0140698435802,-0.0358174580378,0.362701469325,0.931110516185,0.000816704006866,0.00253116735257,-0.00465066824108,0.765759352818,0.0139139615321,9.78405687886
1609060340471929025,27182,1609060340471929025,0.0140698674117,-0.0358156756131,0.362699520883,0.931111343375,0.000353691430064,0.00274999020621,-0.00392572022974,0.766490606546,0.0146902066427,9.78504473591
1609060340473083630,27183,1609060340473083630,0.0140719277039,-0.0358153815146,0.362696432503,0.931112526576,0.000940855999943,0.00209193839692,-0.00387294543907,0.766720410369,0.0148739967593,9.78621953219
1609060340473291337,27184,1609060340473291337,0.0140728424884,-0.0358159947881,0.362690428284,0.931114827963,0.000386229163269,0.00192185211927,-0.00550964754075,0.766598680794,0.0146094156657,9.78728975934
1609060340475285751,27185,1609060340475285751,0.014073898457,-0.0358142650109,0.362685897585,0.931116643336,0.000195283646462,0.00260213972069,-0.00613662600517,0.765925042324,0.0135824547303,9.7883751753
1609060340479540973,27186,1609060340479540973,0.0140738570707,-0.0358109672209,0.36268578198,0.931116815831,0.000678756972775,0.00340361264534,-0.00478129647672,0.765197804868,0.0120765532725,9.78901544219
1609060340481879995,27187,1609060340481879995,0.0140760151152,-0.0358104663541,0.362685427689,0.931116940475,0.000980864278972,0.00278431084007,-0.00298600830138,0.764053094119,0.0100138914445,9.78991567147
1609060340484461645,27188,1609060340484461645,0.0140780633378,-0.0358121480556,0.362681524735,0.931118365086,0.00110796559602,0.00178080669139,-0.00339542375877,0.762500622153,0.00766318983911,9.79060442573
1609060340486907984,27189,1609060340486907984,0.0140767068272,-0.0358134604082,0.36268024571,0.931118833313,-0.000480009475723,0.0016149446601,-0.00373326567933,0.761043518409,0.00468767942442,9.79102387065
1609060340492090200,27190,1609060340492090200,0.0140782312756,-0.0358124941148,0.362679105631,0.931119291502,-0.000179429131094,0.00112507352605,-0.00225906679407,0.759440295361,0.00126322274236,9.79075164038
1609060340493705540,27191,1609060340493705540,0.0140794862859,-0.0358133991094,0.362679383283,0.93111912957,0.000879116705619,0.000898081343621,-0.00161649018992,0.758006412975,-0.00228292700322,9.79065817076
1609060340494540605,27192,1609060340494540605,0.0140822339865,-0.0358117504572,0.362676308972,0.931120348895,0.000545945367776,0.00146017712541,-0.00256283115596,0.756555151083,-0.00579732537456,9.78955873436
1609060340495351194,27193,1609060340495351194,0.0140840359997,-0.0358101360037,0.362677491032,0.931119923312,0.00112835457548,0.0023196216207,-0.00223347661085,0.755394448265,-0.00878374362085,9.7888150667
1609060340499457012,27194,1609060340499457012,0.0140825442171,-0.0358131813163,0.362684798895,0.931116982255,4.30081272498e-05,0.00167879695073,0.00155837403145,0.754553659827,-0.0110460507148,9.78755614775
1609060340501715970,27195,1609060340501715970,0.0140808506894,-0.0358123972646,0.362685336248,0.931116828715,-0.0013898331672,0.00187811907381,0.00134723994415,0.754010805801,-0.0125578396632,9.78657471675
1609060340502588960,27196,1609060340502588960,0.0140822429928,-0.035811634726,0.36267991988,0.931118946734,-0.000583999790251,0.00282419077121,-0.00189557787962,0.75336250636,-0.0135514609711,9.78527023137
1609060340507003296,27197,1609060340507003296,0.0140850711273,-0.0358132736468,0.36268495657,0.931116879065,0.00082410860341,0.00126376282424,1.29814725369e-05,0.75276189103,-0.0140676022195,9.78424440229
1609060340510715509,27198,1609060340510715509,0.0140868550324,-0.0358163626455,0.362694985157,0.931112826904,0.000601951149292,0.000232648220845,0.0028385440819,0.751931690946,-0.0139027205324,9.78317067003
1609060340512459435,27199,1609060340512459435,0.0140876380049,-0.0358173889212,0.362699995562,0.931110823869,-7.117340283e-05,0.000757966015954,0.00285466155037,0.751069360681,-0.0133577944748,9.78250878829
1609060340514489829,27200,1609060340514489829,0.0140852688128,-0.0358155179759,0.362699580556,0.931111093339,-0.000163427845109,0.0013398968149,0.0024816733785,0.749888284408,-0.0122491023894,9.78169209749
1609060340515345434,27201,1609060340515345434,0.0140847419488,-0.0358175666922,0.362700857073,0.931110525254,-0.000861798063852,0.00114843423944,0.000889282673597,0.748464771308,-0.011071353233,9.78132172412
1609060340519536977,27202,1609060340519536977,0.0140867463894,-0.035819094387,0.362702121246,0.931109943722,-0.000675472838338,0.00109616864938,-0.000985745922662,0.746620790966,-0.00945377200982,9.78113303232
1609060340521922551,27203,1609060340521922551,0.0140863545891,-0.0358198000748,0.362704823627,0.931108869818,-0.000406970997574,0.00157607637811,-0.000387436506571,0.744846985862,-0.00787066683685,9.78150165313
1609060340524636621,27204,1609060340524636621,0.0140862948027,-0.035820847877,0.362710807998,0.931106499235,-0.0009003165178,0.00138023949694,0.000131913751829,0.742965471625,-0.00642198813753,9.78163484734
1609060340526886026,27205,1609060340526886026,0.0140857029737,-0.0358213063813,0.362714758057,0.931104951801,-0.000918235746212,0.00150158838369,0.000661071389914,0.741540644109,-0.00523731547454,9.78234521645
1609060340531548688,27206,1609060340531548688,0.0140853224089,-0.0358221379532,0.362715817747,0.93110451276,-0.00094442605041,0.00189065153245,0.000820988963824,0.740464867204,-0.00441687767208,9.78317943281
1609060340533476535,27207,1609060340533476535,0.014084375157,-0.0358231316815,0.362718993011,0.931103251913,-0.00116647221148,0.00174269091804,0.00051395164337,0.739694838189,-0.00372826032992,9.78442666805
1609060340534372047,27208,1609060340534372047,0.0140835290887,-0.0358244208632,0.362720872699,0.931102482859,-0.00130224926397,0.00175467552617,0.000675629242323,0.739490957581,-0.00300313141756,9.78598936325
1609060340536888879,27209,1609060340536888879,0.0140797067168,-0.035824660116,0.36272297541,0.931101712326,-0.00228206021711,0.00245430669747,0.000240786685026,0.739802401274,-0.0021886906405,9.78747611439
1609060340539541210,27210,1609060340539541210,0.0140793806208,-0.0358244981762,0.36272345299,0.93110153744,-0.00205820892006,0.00259896321222,-0.000789796060417,0.740454863034,-0.00144452094426,9.78888458472
1609060340541725900,27211,1609060340541725900,0.0140787609969,-0.0358231318654,0.362724466225,0.931101204657,-0.000650910660625,0.00273274094798,-0.00131459801923,0.741913354218,-0.00043114231294,9.79025040954
1609060340544552277,27212,1609060340544552277,0.0140792472514,-0.0358225545961,0.362728522836,0.93109963919,-0.000428614148404,0.00325777940452,-0.000468790938612,0.74382546515,0.00072376429243,9.79133173621
1609060340546969284,27213,1609060340546969284,0.0140797357876,-0.0358217045095,0.362727736338,0.931099970904,-0.000120070850244,0.00290569826029,-0.00123624270782,0.746351992786,0.00223244062951,9.7917091198
1609060340550610161,27214,1609060340550610161,0.0140748933376,-0.0358224821113,0.362724364249,0.931101327855,-0.00122922717128,0.00307865417562,-0.0034335127566,0.749476287849,0.00388413278712,9.79191942644
1609060340552348978,27215,1609060340552348978,0.0140736393326,-0.0358222095458,0.362721693183,0.931102397846,-0.0019934871234,0.00311577110551,-0.00422250572592,0.752923929378,0.00545716989459,9.79145616764
1609060340554562710,27216,1609060340554562710,0.0140719422481,-0.0358222657825,0.362725005417,0.931101131006,-0.00182260316797,0.00250784866512,-0.00306413369253,0.756597431481,0.00685423492547,9.7910729422
1609060340556752327,27217,1609060340556752327,0.0140724193388,-0.0358225776898,0.362722636067,0.93110203481,-0.00125733413734,0.00203696009703,-0.00295536476187,0.760385872006,0.00833074456919,9.79018673337
1609060340559375413,27218,1609060340559375413,0.0140743809172,-0.0358216186337,0.362717442087,0.931104065422,0.000216817454202,0.00169137818739,-0.00495702819899,0.76433890669,0.0095590896341,9.78893015116
1609060340561820407,27219,1609060340561820407,0.0140727700891,-0.0358213146137,0.362712998968,0.931105832299,-0.000506226613652,0.00222326791845,-0.0058370353654,0.768019419014,0.0104166277559,9.78750123435
1609060340564384457,27220,1609060340564384457,0.0140718952398,-0.0358193698211,0.362709219034,0.931107392806,-8.24622111395e-05,0.00287758745253,-0.00638654641807,0.770894413076,0.0108459399263,9.78629956555
1609060340566890283,27221,1609060340566890283,0.014072106609,-0.0358177833274,0.362705530577,0.931108887457,0.000794794876128,0.00309276138432,-0.00608672434464,0.772880350403,0.0108618498431,9.7852492007
1609060340574795913,27222,1609060340574795913,0.0140732980408,-0.0358167240472,0.36270426939,0.931109401482,0.000310098781483,0.00346797239035,-0.00472464319319,0.77401615233,0.0104606880932,9.78454058415
1609060340575008274,27223,1609060340575008274,0.0140723570503,-0.0358154209646,0.362697822714,0.93111197704,-0.000206470896956,0.00353051186539,-0.00589243136346,0.774083917804,0.00974655829137,9.78388162333
1609060340575145391,27224,1609060340575145391,0.0140714058135,-0.0358168973798,0.362693212815,0.931113730313,-0.00108404154889,0.00259466376156,-0.00579082127661,0.773323965982,0.00902428640937,9.78367540598
1609060340575338279,27225,1609060340575338279,0.0140719806261,-0.035816322823,0.36269408253,0.93111340495,-0.000503353250679,0.00210111704655,-0.00265760114416,0.771905783571,0.00832706146454,9.78334417301
1609060340579466910,27226,1609060340579466910,0.014072235232,-0.0358154848752,0.362693545131,0.931113642666,-0.000540559471119,0.00205877283588,-0.00224461266771,0.770153739363,0.00763262052694,9.78346860445
1609060340580984717,27227,1609060340580984717,0.0140731278261,-0.0358168480816,0.362690517423,0.931114756106,-0.000767784542404,0.00129075523,-0.00389452651143,0.767998242304,0.00678141716262,9.78327523917
1609060340584592736,27228,1609060340584592736,0.0140734495574,-0.0358157005003,0.362684984431,0.931116950594,0.000184559641639,0.00156510714442,-0.0037861680612,0.765715392888,0.00577542299638,9.78328692287
1609060340587233506,27229,1609060340587233506,0.0140734018935,-0.0358151420211,0.362684712272,0.931117078807,0.000158144248417,0.00241877813824,-0.00260904850438,0.763523457281,0.0046542348261,9.78337980831
1609060340590915285,27230,1609060340590915285,0.0140746941523,-0.0358139476167,0.362684797477,0.931117072027,0.000710183754563,0.00231398781762,-0.00277968961746,0.76167670206,0.00361894012475,9.7836666432
1609060340592704099,27231,1609060340592704099,0.0140760181323,-0.0358139997609,0.3626834988,0.931117555861,0.00111646170262,0.00188575964421,-0.00323236035183,0.75990742439,0.00226661545923,9.78400722313
1609060340594460937,27232,1609060340594460937,0.014076585089,-0.0358157319637,0.36268385165,0.931117343222,0.000327672983985,0.00152285781223,-0.00176626467146,0.758241693534,0.000440352356527,9.78440213227
1609060340596926684,27233,1609060340596926684,0.014077552754,-0.0358174362879,0.362684574926,0.931116981306,-1.22414203361e-05,0.000959118886385,-0.000886559369974,0.756546899468,-0.00124560590973,9.78467377836
1609060340599301431,27234,1609060340599301431,0.0140776016609,-0.0358174406834,0.362684326543,0.931117077147,-0.000417398870923,0.000908862624783,-0.00113008765038,0.755214373201,-0.00307884728629,9.78526964718
1609060340603943564,27235,1609060340603943564,0.0140797622723,-0.0358164072409,0.362689550867,0.93111504926,0.000497646105941,0.00175726180896,0.000756121124141,0.753930699416,-0.00499953843746,9.78592393452
1609060340604123120,27236,1609060340604123120,0.0140834677215,-0.0358166424831,0.36269288404,0.931113685822,0.00170186441392,0.00122621515766,0.00201725633815,0.752911004283,-0.00675052381027,9.78693165386
1609060340606983956,27237,1609060340606983956,0.0140833717979,-0.0358183665204,0.362695431462,0.931112628663,0.000417623930844,0.000524073140696,0.000921759405173,0.751792070702,-0.00818378093513,9.78759937745
1609060340610814123,27238,1609060340610814123,0.0140815077146,-0.0358198083104,0.362692731924,0.931113652935,-0.000500090420246,0.0013499353081,-0.000329246773617,0.750986844532,-0.00958857272705,9.78828754753
1609060340612347095,27239,1609060340612347095,0.0140827864242,-0.0358199057231,0.362695939089,0.931112380569,0.000258140382357,0.00175874866545,-7.50568869989e-05,0.750059158556,-0.0110556213101,9.78880163044
1609060340614353174,27240,1609060340614353174,0.014084295309,-0.0358201236917,0.362705796823,0.931108509421,-0.000259957916569,0.00162922928575,0.00253011845052,0.749255611919,-0.0122684307019,9.78927073109
1609060340615335758,27241,1609060340615335758,0.0140853444744,-0.0358200143938,0.362710823705,0.931106539558,-0.000285129062831,0.00173962733243,0.00331633444875,0.748415115573,-0.0130945871291,9.78969660205
1609060340619379774,27242,1609060340619379774,0.014085848185,-0.0358202064389,0.362712157606,0.93110600493,0.000428742147051,0.0019725554157,0.00232324749231,0.747604266621,-0.013062566482,9.78997233742
1609060340621916302,27243,1609060340621916302,0.0140842022447,-0.035819606616,0.36271707444,0.931104137537,-0.000506155542098,0.00254525081255,0.00229177577421,0.746821969718,-0.0126172302961,9.79022937888
1609060340624449144,27244,1609060340624449144,0.0140832907363,-0.0358205787178,0.362722386922,0.931102044401,-0.000860652595293,0.00249097356573,0.00243263226002,0.745966649674,-0.0115762306619,9.7905308184
1609060340627290487,27245,1609060340627290487,0.0140817000727,-0.035819502606,0.362724170987,0.931101414851,-0.000822439149488,0.00266054947861,0.00108608184382,0.745340184152,-0.0102200814094,9.79072067857
1609060340631868429,27246,1609060340631868429,0.0140805806482,-0.0358180807074,0.362724936342,0.931101188324,-0.0016179602826,0.00367365009151,-0.00072068348527,0.744465732045,-0.00768176510045,9.79089359736
1609060340633618970,27247,1609060340633618970,0.0140771969722,-0.0358184664246,0.362728179727,0.931099961132,-0.00247378507629,0.00338969985023,-5.46184601262e-05,0.744019414611,-0.00582268722402,9.79079662263
1609060340634646714,27248,1609060340634646714,0.014077877679,-0.0358189123374,0.362733990114,0.931097670116,-0.00172028003726,0.00276304385625,0.000528567703441,0.743734989479,-0.00318463499704,9.79057054299
1609060340636037956,27249,1609060340636037956,0.0140758385743,-0.035818823871,0.362734055629,0.931097678824,-0.00120323116425,0.00274417619221,-0.000855810008943,0.743656562626,-0.000768249076791,9.79049927241
1609060340638194398,27250,1609060340638194398,0.0140727800291,-0.0358178933329,0.362731119605,0.931098904655,-0.00221778312698,0.00275296811014,-0.00242802035064,0.74385219162,0.00150871741259,9.79016278177
1609060340642098569,27251,1609060340642098569,0.0140683546601,-0.0358171664274,0.362727243387,0.931100509554,-0.00307965348475,0.00333764939569,-0.00409644283354,0.744921031326,0.00363132667495,9.79035264194
1609060340644487080,27252,1609060340644487080,0.0140655442581,-0.0358167482704,0.362728430358,0.931100105691,-0.0031910976395,0.0035616713576,-0.0044248891063,0.746253192477,0.00583033639798,9.78990807706
1609060340647176748,27253,1609060340647176748,0.0140640985165,-0.0358163890603,0.362724508695,0.9311016691,-0.0021346937865,0.00299056316726,-0.00447706738487,0.748271333009,0.00798636287497,9.78995072258
1609060340650821790,27254,1609060340650821790,0.0140629995076,-0.035816108121,0.362725860019,0.931101170076,-0.00167838612106,0.00307104503736,-0.00396505510435,0.751405413173,0.0100106190951,9.78929760361
1609060340652542850,27255,1609060340652542850,0.0140620972562,-0.0358154349727,0.362725374157,0.931101398872,-0.00137396831997,0.00310964230448,-0.0024988623336,0.753597056687,0.0111538283061,9.7890820393
1609060340654542207,27256,1609060340654542207,0.0140579779652,-0.0358163613022,0.362721725998,0.931102846633,-0.00151437218301,0.00244973436929,-0.00335753522813,0.756735591263,0.0126109092305,9.78810119247
1609060340657015386,27257,1609060340657015386,0.014057368944,-0.0358156197577,0.362719099318,0.931103907601,-0.00143080344424,0.0024320858065,-0.00428963173181,0.758851071641,0.0133727870383,9.78784648776
1609060340659472107,27258,1609060340659472107,0.0140577404496,-0.0358151666018,0.362716568659,0.931104905258,-0.000209282676224,0.00222847494297,-0.00376335391775,0.761170140535,0.0142152504455,9.78716299117
1609060340661782701,27259,1609060340661782701,0.0140582081642,-0.035815199906,0.362715223777,0.931105420819,0.000100455916254,0.00178550521377,-0.00320576131344,0.763441963457,0.0148682553149,9.78691880178
1609060340664301933,27260,1609060340664301933,0.0140551376531,-0.0358146602569,0.362709671747,0.931107650724,-0.000652401009575,0.00251611578278,-0.0050174696371,0.765174218394,0.0151508959439,9.78633286411
1609060340667010548,27261,1609060340667010548,0.0140522983643,-0.0358150773618,0.36270567696,0.931109233681,-0.00198350055143,0.0028533115983,-0.00611128518358,0.766900923572,0.0150847232868,9.78585149556
1609060340670864508,27262,1609060340670864508,0.014054652151,-0.0358139990449,0.36270458498,0.931109665002,-0.000683999853209,0.0025188436266,-0.00468087708578,0.768221985206,0.0146230207896,9.78473628616
1609060340676261348,27263,1609060340676261348,0.0140562853683,-0.0358135407664,0.36270142466,0.93111088904,0.00112220738083,0.00219497154467,-0.00438655121252,0.768704230025,0.0142340265205,9.7842204507
1609060340676477394,27264,1609060340676477394,0.0140582785175,-0.0358135831947,0.36269609033,0.931112935214,0.000961496960372,0.00168579397723,-0.00539532816038,0.768645081282,0.0135373264295,9.78330269587
1609060340676602710,27265,1609060340676602710,0.014060140898,-0.0358129642056,0.362690990995,0.931114917228,0.00103851419408,0.00171311222948,-0.00622601713985,0.768196865246,0.0130757243391,9.78300826657
1609060340679552726,27266,1609060340679552726,0.0140573108251,-0.0358136963825,0.362688159225,0.931116034832,2.28012213483e-05,0.00174234225415,-0.00558760017157,0.76691808401,0.0123791383468,9.78239253545
1609060340681889834,27267,1609060340681889834,0.0140582320284,-0.0358128561846,0.362683242444,0.931117968409,-0.000292483426165,0.00196095905267,-0.00549508351833,0.765422351025,0.0115763767082,9.78192635572
1609060340684477215,27268,1609060340684477215,0.014060227024,-0.035812429761,0.362681272449,0.931118722025,0.00039065850433,0.00213645701297,-0.0049729407765,0.763540909812,0.0104844571254,9.78135852778
1609060340685288538,27269,1609060340685288538,0.0140604572648,-0.0358125059382,0.36267961002,0.931119363152,5.31364930794e-05,0.00189523736481,-0.00356788071804,0.761282011986,0.00897928589908,9.78113069558
1609060340691905569,27270,1609060340691905569,0.0140606948485,-0.0358117807948,0.362678619764,0.931119773167,0.000111698289402,0.00242952210829,-0.00273942784406,0.75880733078,0.00688481792947,9.78088183272
1609060340693663749,27271,1609060340693663749,0.0140627612824,-0.0358129389125,0.362680880768,0.931118816734,0.000704505480826,0.00175911339466,-0.00105967582203,0.756331700273,0.00424103338597,9.78084678161
1609060340694609577,27272,1609060340694609577,0.0140633764091,-0.0358128238462,0.362677228078,0.931120234624,0.000390254106605,0.00142936862539,-0.00136713881511,0.753627726406,0.000572181944735,9.78085262346
