%time,field.header.seq,field.header.stamp,field.orientation.x,field.orientation.y,field.orientation.z,field.orientation.w,field.angular_velocity.x,field.angular_velocity.y,field.angular_velocity.z,field.linear_acceleration.x,field.linear_acceleration.y,field.linear_acceleration.z
1609060339227838752,28218,1609060339227838752,-0.0101375645027,0.0418542586267,0.370262295008,0.927928447723,-0.00894768256694,0.00186911504716,0.0169150754809,0.806093811989,-0.202814310789,-9.58487033844
1609060339227869043,28219,1609060339227869043,-0.0101554151624,0.0418435148895,0.370276778936,0.927923083305,-0.00892529543489,0.00321778748184,0.0152401793748,0.840417861938,-0.212693423033,-9.58851718903
1609060339232944412,28220,1609060339232944412,-0.0101629085839,0.0418320707977,0.370296627283,0.92791557312,-0.00750573026016,-0.000475180218928,0.0139748025686,0.834399402142,-0.279609084129,-9.54822158813
1609060339232965448,28221,1609060339232965448,-0.010176946409,0.0418235100806,0.370307594538,0.92791134119,-0.00570358522236,-0.000234966690186,0.0125660151243,0.827296733856,-0.3219614923,-9.57292461395
1609060339238093146,28222,1609060339238093146,-0.0101809408516,0.0418151058257,0.370319366455,0.927907049656,-0.00494736200199,0.00102806393988,0.0107398079708,0.78525185585,-0.294663339853,-9.6312713623
1609060339238174337,28223,1609060339238174337,-0.0101903146133,0.0418052263558,0.370327204466,0.927904248238,-0.0033530225046,-0.000161458621733,0.00944802258164,0.821799278259,-0.339412689209,-9.61651229858
1609060339243259545,28224,1609060339243259545,-0.0101891085505,0.0418017320335,0.370333194733,0.927901983261,-0.000562339555472,0.000943347404245,0.00712335016578,0.8485455513,-0.362047076225,-9.67086696625
1609060339243279946,28225,1609060339243279946,-0.010191607289,0.0418002828956,0.370336771011,0.927900612354,0.00331496680155,0.00304753449745,0.00547550758347,0.8001075387,-0.384846299887,-9.6392364502
1609060339248347106,28226,1609060339248347106,-0.0101873474196,0.0417942516506,0.370339632034,0.927899777889,0.00428871996701,0.0017326825764,0.00295428722166,0.817532837391,-0.430705666542,-9.61244773865
1609060339248359851,28227,1609060339248359851,-0.0101875271648,0.0417908541858,0.370336413383,0.927901208401,0.00498550385237,0.000645700260065,3.68997571059e-05,0.806393742561,-0.416916459799,-9.64277362823
1609060339253481455,28228,1609060339253481455,-0.010173923336,0.0417877212167,0.370335310698,0.927901983261,0.00893499050289,0.000294201425277,-0.00150349992327,0.784668803215,-0.424843549728,-9.70560646057
1609060339253547778,28229,1609060339253547778,-0.0101656541228,0.041792884469,0.370326370001,0.927905440331,0.0134405381978,0.00220680842176,-0.00375046255067,0.797196269035,-0.409314781427,-9.70543193817
1609060339258630170,28230,1609060339258630170,-0.0101485727355,0.0417966321111,0.370314866304,0.927909970284,0.0158218163997,0.00430615851656,-0.00625678151846,0.777619540691,-0.360758930445,-9.69780540466
1609060339258648586,28231,1609060339258648586,-0.010134938173,0.0417971685529,0.370300769806,0.927915811539,0.0172255076468,0.00177760794759,-0.00844881217927,0.823638677597,-0.347353756428,-9.6665802002
1609060339265373272,28232,1609060339265373272,-0.01011447981,0.041806705296,0.370284408331,0.927922129631,0.0193581599742,0.00329123204574,-0.0104412063956,0.822318971157,-0.292407006025,-9.62565994263
1609060339265405245,28234,1609060339265405245,-0.0100726848468,0.041823849082,0.370254695415,0.927933692932,0.0238271690905,0.00446083443239,-0.0115662375465,0.863608181477,-0.256959676743,-9.63906574249
1609060339270579180,28235,1609060339270579180,-0.0100522888824,0.0418296605349,0.370236814022,0.927940785885,0.0244739130139,0.00422418909147,-0.0120962979272,0.84843069315,-0.226256504655,-9.65740013123
1609060339270699271,28236,1609060339270699271,-0.0100320214406,0.0418428815901,0.370221614838,0.927946329117,0.0245096683502,0.00481803435832,-0.0129427593201,0.854046881199,-0.190831929445,-9.64227104187
1609060339275814132,28237,1609060339275814132,-0.0100096967071,0.0418493337929,0.370204031467,0.92795330286,0.0253143478185,0.00476912874728,-0.012783633545,0.834989786148,-0.152358084917,-9.6124124527
1609060339275840569,28238,1609060339275840569,-0.0099918153137,0.0418579801917,0.370194017887,0.927957117558,0.0246687605977,0.00307289464399,-0.0127324163914,0.883476495743,-0.123745545745,-9.62158203125
1609060339280919278,28239,1609060339280919278,-0.00997519493103,0.0418724939227,0.370177537203,0.927963316441,0.0237233489752,0.00691895140335,-0.0122609436512,0.86034488678,-0.00876840017736,-9.67008018494
1609060339280941429,28240,1609060339280941429,-0.00996214430779,0.0418784916401,0.370170891285,0.927965819836,0.023375691846,0.0055282972753,-0.0107482112944,0.867887854576,0.013365007937,-9.54984664917
1609060339286090669,28241,1609060339286090669,-0.00995067879558,0.0418879799545,0.370157599449,0.927970826626,0.0206602383405,0.00443297950551,-0.00950213894248,0.868412494659,0.0012838691473,-9.54654216766
1609060339286221714,28242,1609060339286221714,-0.00994535349309,0.0418901331723,0.370157778263,0.927970707417,0.0174241662025,0.0038782521151,-0.0078832488507,0.820085763931,0.0654149651527,-9.59118175507
1609060339291390559,28243,1609060339291390559,-0.00993769429624,0.0419023633003,0.370149344206,0.927973568439,0.0163279753178,0.00547701958567,-0.00582284945995,0.840151846409,0.0779806524515,-9.61038684845
1609060339291495532,28244,1609060339291495532,-0.00993507169187,0.0419073477387,0.370154231787,0.927971422672,0.0161132346839,0.00702641298994,-0.00377328367904,0.848924398422,0.104253940284,-9.63057422638
1609060339296593306,28245,1609060339296593306,-0.00993051659316,0.0419089086354,0.37015286088,0.927971959114,0.0132536124438,0.00353689817712,-0.000895483943168,0.843435406685,0.0956342071295,-9.59031009674
1609060339296617251,28246,1609060339296617251,-0.00994041375816,0.0419130250812,0.370156556368,0.927970170975,0.0081952707842,0.00509375799447,0.00184322986752,0.811616301537,0.096192240715,-9.6530418396
1609060339301760288,28247,1609060339301760288,-0.00994486734271,0.0419157743454,0.370159655809,0.927968740463,0.00494483206421,0.00688140233979,0.00364234764129,0.804976403713,0.141633599997,-9.61430168152
1609060339301867319,28248,1609060339301867319,-0.00995483621955,0.0419102050364,0.370170742273,0.927964448929,0.00346310809255,0.00352998287417,0.00671915337443,0.817678332329,0.127355799079,-9.52580356598
1609060339306988215,28249,1609060339306988215,-0.00996376853436,0.0419092439115,0.370177805424,0.927961647511,0.0011832973687,0.00282027455978,0.00830143690109,0.800597727299,0.0891222506762,-9.5776758194
1609060339307038619,28251,1609060339307038619,-0.00999522488564,0.0419045910239,0.370211601257,0.927948057652,-0.00333848409355,0.00544292479753,0.0132216801867,0.813926637173,0.120327264071,-9.54453849792
1609060339312113908,28252,1609060339312113908,-0.0100184772164,0.0418984144926,0.370234638453,0.927938878536,-0.00536132138222,0.00134382746182,0.0150247430429,0.806955337524,0.0551820397377,-9.58812332153
1609060339312131788,28253,1609060339312131788,-0.0100348824635,0.0418959669769,0.370250403881,0.927932500839,-0.00710924062878,0.00508131412789,0.0152262905613,0.803023457527,0.0199104119092,-9.62384319305
1609060339317703787,28254,1609060339317703787,-0.0100548891351,0.0418839156628,0.370262175798,0.9279281497,-0.00764246284962,0.00294394535013,0.0150381410494,0.828840970993,-0.0174826793373,-9.49291038513
1609060339317745163,28255,1609060339317745163,-0.0100741051137,0.0418757013977,0.370279997587,0.927921175957,-0.00957893952727,0.00122005399317,0.0158184431493,0.837459921837,-0.041425563395,-9.50251102448
1609060339323003722,28256,1609060339323003722,-0.0100978622213,0.0418718494475,0.370295524597,0.927914917469,-0.0103167705238,0.00467397784814,0.0174456462264,0.84215939045,-0.0849971696734,-9.56222629547
1609060339323130162,28257,1609060339323130162,-0.0101146418601,0.0418539009988,0.370313435793,0.927908420563,-0.0108545366675,0.000691554858349,0.0174133107066,0.819960951805,-0.0883172750473,-9.48881721497
1609060339328228939,28258,1609060339328228939,-0.0101304017007,0.041842687875,0.370330989361,0.927901744843,-0.00953487865627,-0.00273786694743,0.0156471692026,0.823762059212,-0.170967742801,-9.51916980743
1609060339328253391,28259,1609060339328253391,-0.0101516842842,0.0418348275125,0.370345592499,0.927896022797,-0.00965332426131,0.00167320482433,0.0142718805,0.830206513405,-0.186656370759,-9.59902000427
1609060339333336616,28260,1609060339333336616,-0.010161682032,0.0418258681893,0.370362967253,0.927889347076,-0.00850461516529,0.00231307838112,0.0142080653459,0.798638641834,-0.244698658586,-9.56422710419
1609060339333359964,28261,1609060339333359964,-0.0101734809577,0.0418099872768,0.370374709368,0.927885234356,-0.00611880421638,-0.00208430364728,0.0130255762488,0.826440095901,-0.326500922441,-9.5482711792
1609060339338445051,28262,1609060339338445051,-0.0101788323373,0.0418091155589,0.370375394821,0.927884936333,-0.0047944355756,0.00100015313365,0.0109207443893,0.792797684669,-0.297164559364,-9.59198570251
1609060339338468823,28263,1609060339338468823,-0.0101869422942,0.041799146682,0.370385199785,0.927881419659,-0.00251539470628,0.00264419289306,0.010208808817,0.789719223976,-0.343101114035,-9.58469486237
1609060339343600206,28264,1609060339343600206,-0.0101829962805,0.0417910665274,0.37037986517,0.927883923054,9.04853222892e-05,-0.00121183495503,0.00771251088008,0.830286979675,-0.368610322475,-9.59247589111
1609060339343657992,28265,1609060339343657992,-0.01019065734,0.0417896695435,0.370383828878,0.927882313728,0.00163302232977,0.0018963420298,0.00530368369073,0.791441321373,-0.390694200993,-9.66265487671
1609060339348731029,28266,1609060339348731029,-0.0101853907108,0.0417820699513,0.370384007692,0.927882671356,0.00257217697799,0.00181727786548,0.0020390660502,0.814378738403,-0.420519858599,-9.58505344391
1609060339348751819,28267,1609060339348751819,-0.0101842079312,0.0417797192931,0.370380550623,0.927884161472,0.00585045712069,0.000132962595671,-0.00103031564504,0.783923387527,-0.366289794445,-9.61848545074
1609060339353824365,28268,1609060339353824365,-0.0101712876931,0.0417784713209,0.370376855135,0.927885830402,0.0097193242982,0.00137982692104,-0.00251266686246,0.793100893497,-0.382375299931,-9.68607711792
1609060339353842286,28269,1609060339353842286,-0.0101622371003,0.0417815595865,0.370366543531,0.927889943123,0.0135637465864,0.0022147372365,-0.00527842575684,0.799670934677,-0.428684532642,-9.70532989502
1609060339358957874,28270,1609060339358957874,-0.0101482272148,0.0417903512716,0.370355516672,0.927894115448,0.0154445376247,0.00572738051414,-0.00699731567875,0.775968551636,-0.377576172352,-9.69937515259
1609060339359051441,28272,1609060339359051441,-0.0101133771241,0.0417922176421,0.370324403048,0.927906811237,0.0184503570199,8.47271294333e-05,-0.0111733209342,0.802672624588,-0.309704124928,-9.57660865784
1609060339365913911,28273,1609060339365913911,-0.0100950524211,0.0417989380658,0.370307207108,0.927913546562,0.0225140377879,0.00188698712736,-0.0122320735827,0.823088645935,-0.305029541254,-9.63862419128
1609060339365938306,28274,1609060339365938306,-0.0100707523525,0.041809476912,0.370296835899,0.927917480469,0.0237958431244,0.0046586021781,-0.0121088204905,0.835314750671,-0.241307064891,-9.62260437012
1609060339371064014,28275,1609060339371064014,-0.0100506413728,0.0418166704476,0.370278805494,0.927924513817,0.0245436076075,0.00456824339926,-0.0124419108033,0.84712010622,-0.216139853001,-9.6003074646
1609060339371085298,28276,1609060339371085298,-0.0100301364437,0.041834898293,0.370267063379,0.927928686142,0.0254044681787,0.00715062581003,-0.012929010205,0.876301109791,-0.205138415098,-9.66556739807
1609060339376623974,28277,1609060339376623974,-0.0100116590038,0.041844766587,0.370248198509,0.927935957909,0.0252074133605,0.00838015787303,-0.0132734077051,0.834873914719,-0.135444641113,-9.6372051239
1609060339376681686,28278,1609060339376681686,-0.00999214872718,0.0418526828289,0.370231419802,0.92794251442,0.0242771431804,0.00432837475091,-0.0129233449697,0.846860408783,-0.0984265431762,-9.58685684204
1609060339381756854,28279,1609060339381756854,-0.00997333042324,0.0418646931648,0.37021484971,0.927948772907,0.0246805511415,0.00508547527716,-0.0119195366278,0.83818602562,-0.0407421141863,-9.62243175507
1609060339381774356,28280,1609060339381774356,-0.00996299926192,0.0418688617647,0.370200932026,0.927954256535,0.0221427883953,0.00426605716348,-0.0107347434387,0.854194521904,0.0044153034687,-9.61861228943
1609060339386873880,28281,1609060339386873880,-0.00995280686766,0.0418800413609,0.370188623667,0.927958786488,0.0187388453633,0.00524573633447,-0.0090396143496,0.864527344704,0.0230460092425,-9.61329078674
1609060339386905206,28282,1609060339386905206,-0.00994776934385,0.0418864265084,0.370186388493,0.927959442139,0.0180154014379,0.00621094042435,-0.00763080641627,0.855535507202,0.076991520822,-9.60727977753
1609060339386984754,28283,1609060339386984754,-0.00993975438178,0.0418964773417,0.370179623365,0.92796176672,0.0169389881194,0.00612952839583,-0.00529127893969,0.876009106636,0.0761373341084,-9.63060951233
1609060339392070814,28284,1609060339392070814,-0.00994056276977,0.0419001765549,0.370183765888,0.927959918976,0.014274048619,0.00604093447328,-0.00266117788851,0.881110668182,0.0879082232714,-9.61560058594
1609060339392101173,28285,1609060339392101173,-0.00993834808469,0.0419020168483,0.370181679726,0.927960693836,0.0108205834404,0.00386070786044,-0.000816059298813,0.852402687073,0.0992567315698,-9.59202289581
1609060339397177241,28286,1609060339397177241,-0.00994600728154,0.0419048406184,0.370181173086,0.927960693836,0.00794417969882,0.00469838827848,0.00124697864521,0.834067821503,0.106997184455,-9.60971832275
1609060339397194302,28287,1609060339397194302,-0.00995181780308,0.041907183826,0.370184987783,0.927958965302,0.00493125291541,0.00608913647011,0.00366754224524,0.82494944334,0.14654737711,-9.62882804871
1609060339402350468,28288,1609060339402350468,-0.00996598694474,0.0419096238911,0.370189964771,0.92795675993,0.00244783423841,0.00708590075374,0.00592682091519,0.820024013519,0.181037500501,-9.58725452423
1609060339402488074,28289,1609060339402488074,-0.00997234787792,0.0419024191797,0.370198190212,0.927953720093,0.00075399002526,0.00363139109686,0.00770925218239,0.818077147007,0.144830465317,-9.56494998932
1609060339407581306,28290,1609060339407581306,-0.00999167002738,0.0419062934816,0.370215266943,0.927946507931,-0.000951339374296,0.00493739591911,0.0102821346372,0.786791205406,0.116604715586,-9.64680480957
1609060339407598629,28291,1609060339407598629,-0.0100033143535,0.0419019907713,0.370229810476,0.927940785885,-0.00260242354125,0.00681439647451,0.0129529573023,0.794282734394,0.0886387079954,-9.58026790619
1609060339412675008,28292,1609060339412675008,-0.0100258775055,0.0418959781528,0.370248824358,0.927933216095,-0.00522206444293,0.00379990693182,0.0136481961235,0.817441999912,0.065939411521,-9.5291852951
1609060339412699951,28293,1609060339412699951,-0.0100427567959,0.0418943502009,0.370264083147,0.927927017212,-0.00678315805271,0.00557267153636,0.0139068327844,0.816957712173,0.0467045605183,-9.57628440857
1609060339417802005,28294,1609060339417802005,-0.0100649837404,0.0418832227588,0.37028041482,0.927920758724,-0.007702562958,0.00349377491511,0.0158146116883,0.800647199154,-0.00110761914402,-9.52411270142
1609060339417835102,28295,1609060339417835102,-0.0100824907422,0.0418709777296,0.370299071074,0.927913665771,-0.00956792011857,-0.000353667186573,0.0171561222523,0.805451393127,-0.0457526519895,-9.54618167877
1609060339422980909,28296,1609060339422980909,-0.0101060438901,0.041865773499,0.370316773653,0.927906572819,-0.010471961461,0.0027845329605,0.0177040174603,0.82356518507,-0.0790682658553,-9.6024017334
1609060339423083116,28297,1609060339423083116,-0.0101224575192,0.0418545491993,0.370335042477,0.927899599075,-0.00990755483508,0.00300158234313,0.0175630152225,0.817005574703,-0.0959653705359,-9.55478382111
1609060339428168379,28298,1609060339428168379,-0.0101382303983,0.041844651103,0.370349884033,0.927893996239,-0.00841996632516,0.00034212495666,0.016597725451,0.846182405949,-0.183479547501,-9.49649620056
1609060339428191877,28299,1609060339428191877,-0.010156086646,0.0418353416026,0.370367407799,0.927887201309,-0.00865752063692,0.00126760394778,0.016262145713,0.814143836498,-0.184594586492,-9.58906650543
1609060339433323758,28300,1609060339433323758,-0.0101649239659,0.0418225750327,0.370380818844,0.927882313728,-0.00800558459014,4.03611920774e-07,0.0155998822302,0.788608551025,-0.214348584414,-9.53494930267
1609060339433421467,28301,1609060339433421467,-0.0101793184876,0.0418146513402,0.370394378901,0.927877128124,-0.00644436525181,-7.87083990872e-06,0.0139857474715,0.801943719387,-0.292809247971,-9.56271934509
1609060339438583151,28302,1609060339438583151,-0.0101816998795,0.0418063998222,0.370399862528,0.92787528038,-0.00441818498075,0.00132411182858,0.0116101512685,0.811866223812,-0.329138100147,-9.58174610138
1609060339438682568,28303,1609060339438682568,-0.0101895481348,0.0417967401445,0.370407134295,0.927872717381,-0.00213013985194,-0.000310318428092,0.00897700991482,0.825502038002,-0.396784305573,-9.55033874512
1609060339443913308,28304,1609060339443913308,-0.0101871211082,0.0417871847749,0.370408654213,0.927872598171,-0.000544788315892,-0.00167071272153,0.00732862530276,0.796912133694,-0.382816284895,-9.63974380493
1609060339444012132,28306,1609060339444012132,-0.0101864980534,0.0417768768966,0.37040707469,0.927873671055,0.00334684434347,0.000897985300981,0.00257373112254,0.81730735302,-0.431979835033,-9.65513420105
1609060339449087096,28307,1609060339449087096,-0.0101852556691,0.0417805835605,0.370405226946,0.927874267101,0.00635794829577,0.00243491912261,0.000865287380293,0.787812292576,-0.383107423782,-9.67269325256
1609060339449101490,28308,1609060339449101490,-0.0101722180843,0.0417797379196,0.370395481586,0.927878379822,0.0105675542727,0.00377360731363,-0.00140870886389,0.793449163437,-0.401465564966,-9.68657207489
1609060339454213056,28309,1609060339454213056,-0.0101661067456,0.0417850464582,0.370386779308,0.927881658077,0.0127329248935,0.00362522481009,-0.00427290005609,0.819145083427,-0.389332860708,-9.67143535614
1609060339454266619,28310,1609060339454266619,-0.0101504772902,0.0417881049216,0.370362251997,0.927891433239,0.0141358524561,0.0045678964816,-0.00664286920801,0.797348678112,-0.352156043053,-9.67937850952
1609060339459348285,28311,1609060339459348285,-0.0101354811341,0.0417917966843,0.370346903801,0.927897572517,0.0173207875341,0.00263405195437,-0.00939145684242,0.859620153904,-0.360913306475,-9.6261920929
1609060339459376072,28312,1609060339459376072,-0.0101126786321,0.0418003611267,0.370318412781,0.927908837795,0.0207515507936,0.00333643960766,-0.0109530203044,0.822359025478,-0.360822975636,-9.66774559021
1609060339464449553,28313,1609060339464449553,-0.0100981136784,0.0418072231114,0.370302677155,0.927914977074,0.0210673101246,0.00458027608693,-0.0110840629786,0.829050123692,-0.317877978086,-9.64779376984
1609060339464474631,28314,1609060339464474631,-0.0100754555315,0.0418161079288,0.370289117098,0.927920222282,0.0215223487467,0.00487037282437,-0.0122489780188,0.838884592056,-0.224643945694,-9.62490081787
1609060339469573248,28315,1609060339469573248,-0.0100540881976,0.0418229550123,0.370271682739,0.927927076817,0.0240767523646,0.00385023071431,-0.0128820026293,0.866220355034,-0.180958256125,-9.65837669373
1609060339469603643,28316,1609060339469603643,-0.0100363763049,0.041840557009,0.370260387659,0.927931010723,0.0253014080226,0.00658319285139,-0.0117229754105,0.887078166008,-0.172480240464,-9.66429519653
1609060339474707738,28317,1609060339474707738,-0.0100135868415,0.0418461598456,0.37024384737,0.927937567234,0.0256280899048,0.0059105665423,-0.011335298419,0.832544445992,-0.173938006163,-9.59534263611
1609060339474848374,28318,1609060339474848374,-0.00999445002526,0.0418538823724,0.370226830244,0.927944242954,0.0245193690062,0.00234563089907,-0.0116869928315,0.858426213264,-0.116951949894,-9.57674407959
1609060339479933804,28319,1609060339479933804,-0.00998005270958,0.0418712347746,0.370210677385,0.927950024605,0.0231350958347,0.00796301197261,-0.0115205505863,0.826790690422,0.00306257791817,-9.65994262695
1609060339479954879,28320,1609060339479954879,-0.00996590685099,0.0418770723045,0.370196342468,0.927955687046,0.0232822373509,0.00694601144642,-0.0102889481932,0.858985841274,-0.0234798789024,-9.57415390015
1609060339485063074,28321,1609060339485063074,-0.00995396543294,0.0418908521533,0.370182514191,0.927960693836,0.0217983871698,0.00598776806146,-0.00934715475887,0.876222908497,-0.0210920535028,-9.59977722168
1609060339485088576,28322,1609060339485088576,-0.00994898192585,0.0419000983238,0.370174646378,0.927963495255,0.0189303550869,0.00808008015156,-0.00793492700905,0.840014696121,0.0672229528427,-9.61691379547
1609060339490168811,28323,1609060339490168811,-0.00993962679058,0.0419059097767,0.370167583227,0.927966117859,0.0166685208678,0.00551940873265,-0.00514256581664,0.85664331913,0.0667528808117,-9.5896987915
1609060339490193137,28324,1609060339490193137,-0.00994110945612,0.0419088378549,0.370165675879,0.927966713905,0.0137042738497,0.00415917485952,-0.0027171028778,0.872507572174,0.0982196182013,-9.59503364563
1609060339495275775,28325,1609060339495275775,-0.00993806030601,0.0419150441885,0.370162278414,0.927967846394,0.0113542601466,0.00524863693863,-0.00124153040815,0.830581188202,0.112257599831,-9.62866973877
1609060339495300716,28326,1609060339495300716,-0.00994407292455,0.0419187881052,0.370165228844,0.927966415882,0.009796269238,0.00641456013545,0.000907867506612,0.815363943577,0.149693235755,-9.62976455688
1609060339500431723,28327,1609060339500431723,-0.00994713883847,0.041918091476,0.370169579983,0.927964687347,0.00636347942054,0.00477497093379,0.00407659169286,0.827117085457,0.184905141592,-9.54741287231
1609060339500511884,28328,1609060339500511884,-0.00996027141809,0.0419135838747,0.370178610086,0.927961170673,0.00238635903224,0.00277331843972,0.00649623433128,0.811262249947,0.152535870671,-9.55016517639
1609060339505888248,28329,1609060339505888248,-0.00996789056808,0.0419161170721,0.370187699795,0.927957296371,0.00108922156505,0.00465838704258,0.00848531257361,0.792974710464,0.0901333466172,-9.63741111755
1609060339505946388,28330,1609060339505946388,-0.00998730678111,0.04191762954,0.370204329491,0.927950441837,-0.000561249558814,0.0082015953958,0.0111694503576,0.830795347691,0.102246031165,-9.63940238953
1609060339511033237,28331,1609060339511033237,-0.0099967084825,0.0419072844088,0.370216697454,0.92794585228,-0.00318980263546,0.00368780037388,0.0124216079712,0.863058507442,0.0877106487751,-9.52505397797
1609060339511053902,28332,1609060339511053902,-0.0100205531344,0.0419025979936,0.370234310627,0.927938759327,-0.00577808218077,0.0014770347625,0.0127448337153,0.791798055172,0.0247512925416,-9.55792045593
1609060339516301699,28333,1609060339516301699,-0.0100384363905,0.0418972037733,0.370250970125,0.927932202816,-0.00827248115093,0.00458749523386,0.0145023223013,0.763263463974,0.0371097810566,-9.57335281372
1609060339516355954,28334,1609060339516355954,-0.0100588640198,0.0418880917132,0.370264410973,0.927927017212,-0.00861361436546,0.00359485880472,0.0162282530218,0.804603219032,0.0330754816532,-9.50025272369
1609060339521433703,28335,1609060339521433703,-0.0100747039542,0.0418814085424,0.370283097029,0.927919685841,-0.00808398239315,0.0028181374073,0.0171338990331,0.815948367119,-0.0366340950131,-9.57262802124
1609060339521455028,28336,1609060339521455028,-0.0100947478786,0.0418751165271,0.370298057795,0.927913784981,-0.00805858708918,0.00365360733122,0.0177972819656,0.818916797638,-0.0958711951971,-9.58997917175
1609060339526529836,28337,1609060339526529836,-0.0101117221639,0.0418632775545,0.370315849781,0.927907049656,-0.00923536904156,0.00190065824427,0.0173494890332,0.811383485794,-0.0882476866245,-9.52166366577
1609060339526547532,28338,1609060339526547532,-0.0101295597851,0.0418518930674,0.370344310999,0.927896022797,-0.00951657351106,-4.67762583867e-05,0.0168036073446,0.804351329803,-0.159598112106,-9.56028747559
1609060339531622218,28339,1609060339531622218,-0.0101479832083,0.04184531793,0.370359241962,0.927890062332,-0.00921249762177,0.00212394096889,0.0156172541901,0.809379696846,-0.185399278998,-9.63405990601
1609060339531648923,28340,1609060339531648923,-0.010159493424,0.0418374538422,0.370382547379,0.927881062031,-0.0074890316464,0.00320215406828,0.0134410709143,0.831725895405,-0.217553764582,-9.56171798706
1609060339536724010,28341,1609060339536724010,-0.0101721193641,0.0418273620307,0.370394527912,0.927876532078,-0.00580360274762,0.00102493877057,0.0122140403837,0.863431215286,-0.301359057426,-9.53962516785
1609060339536741350,28342,1609060339536741350,-0.0101771112531,0.0418185926974,0.370404958725,0.927872776985,-0.00475699594244,-0.000255384744378,0.011532202363,0.838338017464,-0.328174173832,-9.5603427887
1609060339541941761,28343,1609060339541941761,-0.0101885171607,0.0418106876314,0.370415478945,0.927868783474,-0.00395375862718,0.000370038324036,0.0109295919538,0.803955495358,-0.348907858133,-9.59342193604
1609060339541979794,28345,1609060339541979794,-0.0101905763149,0.0418004579842,0.370421618223,0.927866756916,0.00227778428234,0.00127750262618,0.00483969785273,0.799338519573,-0.388962835073,-9.6521282196
1609060339547053893,28346,1609060339547053893,-0.0101827848703,0.0417940765619,0.370426803827,0.927865087986,0.00554419308901,0.00199107825756,0.00280642532744,0.806203842163,-0.454008221626,-9.6425485611
1609060339547072899,28347,1609060339547072899,-0.0101852882653,0.0417963862419,0.370421200991,0.927867174149,0.00631681736559,0.00245323497802,-0.00089880550513,0.774688780308,-0.412770777941,-9.62165927887
1609060339552148430,28348,1609060339552148430,-0.01017282065,0.0417884886265,0.370422035456,0.927867352962,0.00794705376029,0.00125367671717,-0.00270606041886,0.783740878105,-0.385492891073,-9.61598491669
1609060339552164909,28349,1609060339552164909,-0.0101622417569,0.0417903587222,0.370413392782,0.927870810032,0.0127880293876,-0.000857835286297,-0.0038214083761,0.80808866024,-0.417747497559,-9.60910797119
1609060339557416494,28350,1609060339557416494,-0.0101445596665,0.0418021976948,0.370400130749,0.927875816822,0.0175010189414,0.00559182558209,-0.00569428363815,0.754099011421,-0.414702624083,-9.74943828583
1609060339557441104,28351,1609060339557441104,-0.010133266449,0.0418057031929,0.37038782239,0.927880644798,0.0180808156729,0.00608353689313,-0.0072473376058,0.81406879425,-0.390762239695,-9.63644790649
1609060339562519540,28352,1609060339562519540,-0.0101105999202,0.0418067425489,0.37036883831,0.927888393402,0.0184295661747,0.00130066415295,-0.00975673086941,0.841716885567,-0.351620256901,-9.54801368713
1609060339562537907,28353,1609060339562537907,-0.0100955627859,0.0418171472847,0.370351344347,0.927895069122,0.0209360979497,0.00329903583042,-0.011861551553,0.83030205965,-0.295304089785,-9.67468166351
1609060339567610298,28354,1609060339567610298,-0.010074922815,0.0418298244476,0.37034124136,0.927898824215,0.0227056071162,0.00751672312617,-0.012280613184,0.837656199932,-0.20257383585,-9.68128204346
1609060339567629020,28355,1609060339567629020,-0.010051173158,0.0418325550854,0.370324701071,0.92790555954,0.0247869025916,0.00337279471569,-0.0118300979957,0.892270803452,-0.192190930247,-9.63668632507
1609060339572781479,28356,1609060339572781479,-0.0100348833948,0.0418517775834,0.370313316584,0.927909433842,0.0254927054048,0.00531570892781,-0.0122612118721,0.883262693882,-0.180946350098,-9.67393112183
1609060339572837123,28357,1609060339572837123,-0.010016256012,0.0418602749705,0.370292544365,0.927917540073,0.0245215930045,0.00820833537728,-0.0140945939347,0.814771175385,-0.154464274645,-9.6170425415
1609060339577921956,28358,1609060339577921956,-0.00999926123768,0.0418633408844,0.370271593332,0.927925944328,0.0222706664354,0.0026576789096,-0.0148407164961,0.877744197845,-0.103963442147,-9.53414344788
1609060339577944630,28359,1609060339577944630,-0.00998164899647,0.041878670454,0.370253950357,0.927932500839,0.0228472892195,0.0053580054082,-0.0134379165247,0.85162204504,-0.0066483495757,-9.64310932159
1609060339583326734,28360,1609060339583326734,-0.00996814947575,0.0418906547129,0.370234847069,0.927939593792,0.024583876133,0.00806745141745,-0.0124554727226,0.857211232185,-0.00696090143174,-9.68287754059
1609060339583346816,28361,1609060339583346816,-0.00995633564889,0.0419027283788,0.370222389698,0.927944242954,0.0218545161188,0.00773012824357,-0.0103481886908,0.880430161953,-0.0132427942008,-9.62192630768
1609060339588457667,28362,1609060339588457667,-0.00994976703078,0.0419052541256,0.370214790106,0.927947223186,0.0178977418691,0.0049780276604,-0.00713574839756,0.851390779018,0.00400143582374,-9.52825546265
1609060339588543805,28363,1609060339588543805,-0.00994136556983,0.0419134572148,0.370204895735,0.927950918674,0.0160125400871,0.00405300687999,-0.00613267114386,0.837705790997,0.0524844750762,-9.53071594238
1609060339593701835,28364,1609060339593701835,-0.00994098559022,0.0419170744717,0.370200544596,0.927952468395,0.0143706947565,0.00536251952872,-0.00479029072449,0.831955313683,0.132136255503,-9.57484436035
1609060339593778498,28365,1609060339593778498,-0.00993974134326,0.0419214330614,0.370198607445,0.927953064442,0.0109976343811,0.0050137033686,-0.00149652780965,0.832595229149,0.132591426373,-9.60610389709
1609060339598914077,28366,1609060339598914077,-0.00994936283678,0.0419259555638,0.370202630758,0.927951157093,0.00767827732489,0.00679453695193,0.000673954375088,0.798372209072,0.155786022544,-9.63967227936
1609060339598981217,28368,1609060339598981217,-0.00996215455234,0.0419234447181,0.370217710733,0.927945077419,0.00417339615524,0.00336068472825,0.00606951769441,0.812275230885,0.104461409152,-9.57771682739
1609060339604054712,28369,1609060339604054712,-0.00997260864824,0.0419241897762,0.370227873325,0.92794084549,0.000422518467531,0.00668302085251,0.00854358263314,0.782403469086,0.0958314687014,-9.6270866394
1609060339604067474,28370,1609060339604067474,-0.00998756662011,0.0419195666909,0.370243161917,0.927934885025,-0.00109686062206,0.0050892662257,0.0102453446016,0.806545853615,0.132512316108,-9.55841255188
1609060339609146888,28371,1609060339609146888,-0.00999643001705,0.0419133156538,0.370254695415,0.927930414677,-0.00157204363495,0.00225557759404,0.010811291635,0.807947099209,0.0925436317921,-9.56001091003
1609060339609172468,28372,1609060339609172468,-0.0100249946117,0.0419133789837,0.370274573565,0.927922189236,-0.00583870802075,0.00570687372237,0.0126818483695,0.790183067322,0.0598502606153,-9.60417366028
1609060339614283095,28373,1609060339614283095,-0.0100399777293,0.0419036671519,0.37028953433,0.92791646719,-0.00867923162878,0.00533930864185,0.0140117807314,0.827142179012,0.0552268736064,-9.51323223114
1609060339614334792,28374,1609060339614334792,-0.0100600263104,0.0418952554464,0.370307803154,0.927909374237,-0.00722840055823,0.00091440678807,0.0153804030269,0.83351111412,-0.00386958499439,-9.49945926666
1609060339619411014,28375,1609060339619411014,-0.0100786620751,0.0418883301318,0.37032687664,0.927901864052,-0.00825400091708,0.00250007049181,0.0171405225992,0.81452023983,-0.0335878878832,-9.62290382385
1609060339619429661,28376,1609060339619429661,-0.0101004065946,0.0418752320111,0.370347946882,0.927893817425,-0.0107074631378,0.00173640588764,0.0181944482028,0.819211006165,-0.0794543772936,-9.56533813477
1609060339624514192,28377,1609060339624514192,-0.0101204710081,0.0418623611331,0.370365023613,0.927887320518,-0.0120832957327,-0.000269329728326,0.0172386337072,0.832787811756,-0.1035124138,-9.4896812439
1609060339624541472,28378,1609060339624541472,-0.0101364022121,0.0418570674956,0.370385944843,0.927879035473,-0.00932090822607,0.00185018032789,0.015936980024,0.812848627567,-0.161664739251,-9.57602119446
1609060339629618809,28379,1609060339629618809,-0.010152365081,0.0418454296887,0.370402425528,0.92787283659,-0.00760154565796,0.00169891689438,0.0157508123666,0.829433321953,-0.152542978525,-9.53888320923
1609060339629640817,28380,1609060339629640817,-0.0101648466662,0.0418344251812,0.370421797037,0.927865445614,-0.00777281913906,-0.000569482624996,0.0150426309556,0.821496725082,-0.205159053206,-9.53782653809
1609060339634719791,28381,1609060339634719791,-0.0101791974157,0.0418247431517,0.370433270931,0.927861154079,-0.00679214438424,-9.1505353339e-05,0.0129313645884,0.824145019054,-0.273199647665,-9.57394123077
1609060339639908377,28382,1609060339639908377,-0.0101857539266,0.0418162606657,0.370438575745,0.92785936594,-0.0058460785076,0.000813096063212,0.0111838886514,0.805028915405,-0.289260655642,-9.59429264069
1609060339640037884,28384,1609060339640037884,-0.0101932752877,0.0418019555509,0.370445400476,0.927857160568,-0.000529269687831,0.000631436472759,0.00714081665501,0.802165091038,-0.375342786312,-9.67122840881
1609060339647182510,28385,1609060339647182510,-0.0101958885789,0.0418018884957,0.370448410511,0.927855968475,0.00309796375223,0.00372876808979,0.00440820679069,0.794711589813,-0.404131829739,-9.62962436676
1609060339647291673,28387,1609060339647291673,-0.010188518092,0.0417926684022,0.370440483093,0.927859604359,0.0060005299747,0.000283099478111,0.00132594187744,0.767269968987,-0.388933420181,-9.68525695801
1609060339652377009,28388,1609060339652377009,-0.0101756863296,0.0417943708599,0.370427429676,0.927864849567,0.00988486409187,0.00445227883756,-0.000956348027103,0.771010398865,-0.397817015648,-9.68535327911
1609060339652399517,28389,1609060339652399517,-0.0101641537622,0.041794911027,0.370418906212,0.927868366241,0.0143234264106,0.00211175647564,-0.00417063944042,0.828724145889,-0.408936560154,-9.64808273315
1609060339657569463,28390,1609060339657569463,-0.0101471617818,0.0418032035232,0.370409429073,0.927872002125,0.0169051736593,0.0036582716275,-0.00565859815106,0.827986955643,-0.398712515831,-9.69748020172
1609060339657684580,28391,1609060339657684580,-0.0101369479671,0.0418028533459,0.370395600796,0.927877604961,0.0163859315217,0.00350774102844,-0.00797402113676,0.85452234745,-0.361024916172,-9.64467144012
1609060339662766595,28392,1609060339662766595,-0.0101147042587,0.0418069437146,0.370381563902,0.927883327007,0.0177206918597,0.000982457073405,-0.00992298312485,0.845822513103,-0.309130072594,-9.59285068512
1609060339662790147,28393,1609060339662790147,-0.0100982794538,0.0418147034943,0.370365232229,0.9278896451,0.0212719999254,0.00306995096616,-0.0108147067949,0.845753729343,-0.281367778778,-9.66176891327
1609060339667867864,28394,1609060339667867864,-0.0100764976814,0.0418281927705,0.370353370905,0.927894055843,0.0234423037618,0.00629411824048,-0.0121314926073,0.825976908207,-0.225776806474,-9.63604640961
1609060339667887659,28395,1609060339667887659,-0.0100521929562,0.0418341718614,0.370334386826,0.927901625633,0.0261525716633,0.00445611774921,-0.0131714455783,0.863868296146,-0.236192986369,-9.56586265564
1609060339673056954,28396,1609060339673056954,-0.0100349262357,0.0418483801186,0.370321989059,0.927906095982,0.0251779910177,0.00488811498508,-0.0134231671691,0.862174510956,-0.187363192439,-9.59053325653
1609060339673175725,28397,1609060339673175725,-0.0100175440311,0.0418590456247,0.370304793119,0.927912652493,0.0232679862529,0.00766219757497,-0.0127031542361,0.813298165798,-0.105096459389,-9.61298370361
1609060339678276787,28398,1609060339678276787,-0.00999828521162,0.0418646000326,0.370274990797,0.927924513817,0.0235491339117,0.00403677532449,-0.0123909795657,0.876401185989,-0.074133425951,-9.56700611115
1609060339678302412,28399,1609060339678302412,-0.00998084433377,0.0418813563883,0.370260238647,0.92792981863,0.024428229779,0.00630211643875,-0.0112807098776,0.837548613548,-0.00944543164223,-9.65528583527
1609060339683379119,28400,1609060339683379119,-0.00996807962656,0.0418884120882,0.370234519243,0.927939891815,0.0234016086906,0.00705331610516,-0.00951074250042,0.846852779388,-0.0196438804269,-9.63577651978
1609060339683400456,28401,1609060339683400456,-0.00995482038707,0.041897661984,0.370221316814,0.927944898605,0.0207103304565,0.00488464813679,-0.00899759214371,0.88668847084,-0.00701642408967,-9.54914665222
1609060339688541281,28402,1609060339688541281,-0.00995007902384,0.0419039018452,0.370212733746,0.927948117256,0.018166217953,0.005099916365,-0.00775868911296,0.850923538208,0.0552027337253,-9.55486392975
1609060339688630094,28403,1609060339688630094,-0.00994142144918,0.0419139824808,0.37020406127,0.927951216698,0.0164961107075,0.00610108207911,-0.00585428159684,0.846284210682,0.067853808403,-9.5864276886
1609060339693802430,28404,1609060339693802430,-0.0099378162995,0.0419184602797,0.370201826096,0.927951931953,0.0162358693779,0.00571872107685,-0.0031389342621,0.863002896309,0.0965014174581,-9.59959602356
1609060339693893928,28405,1609060339693893928,-0.00993292685598,0.0419245809317,0.370199263096,0.927952766418,0.0141415586695,0.00482480786741,-0.000610967050306,0.853519260883,0.0859488621354,-9.57716941833
1609060339698985015,28406,1609060339698985015,-0.00993935484439,0.0419270172715,0.370196133852,0.927953779697,0.00994057487696,0.00554982107133,0.000881269690581,0.813054203987,0.0820754617453,-9.6556930542
1609060339699008315,28408,1609060339699008315,-0.00995327439159,0.0419245809317,0.370202422142,0.927951216698,0.00362647278234,0.00356646301225,0.00574161671102,0.834538817406,0.168243005872,-9.50955486298
1609060339704077549,28409,1609060339704077549,-0.00995911471546,0.0419204235077,0.370211452246,0.927947759628,0.00220442074351,0.00270339427516,0.00787457171828,0.805559694767,0.111351713538,-9.57162284851
1609060339709191690,28410,1609060339709191690,-0.00998041126877,0.0419275797904,0.370224565268,0.927941977978,-0.000526623916812,0.00758792553097,0.00976669322699,0.787071585655,0.119823336601,-9.63542175293
1609060339709296503,28412,1609060339709296503,-0.0100126825273,0.0419092699885,0.37025809288,0.927929103374,-0.00584497116506,0.000349041307345,0.0143554061651,0.798332512379,0.059894092381,-9.56178951263
1609060339714377931,28413,1609060339714377931,-0.0100293438882,0.0419095978141,0.370275884867,0.927921772003,-0.00629714177921,0.00627749506384,0.0158157069236,0.787702620029,0.0119224898517,-9.63469696045
1609060339714395410,28414,1609060339714395410,-0.010048514232,0.0418964773417,0.370296150446,0.927914083004,-0.00741832423955,0.00375924468972,0.0166848991066,0.812787294388,0.00613235589117,-9.52633666992
1609060339719471144,28415,1609060339719471144,-0.0100653162226,0.0418895408511,0.370315104723,0.927906632423,-0.00856590084732,0.00108249147888,0.0171009469777,0.828963577747,-0.0353249944746,-9.50177764893
1609060339724834415,28416,1609060339724834415,-0.0100861005485,0.0418833233416,0.370336055756,0.927898287773,-0.00840086396784,0.00356662645936,0.0174664780498,0.804094791412,-0.137454912066,-9.59983253479
1609060339724862883,28418,1609060339724862883,-0.0101206516847,0.0418567694724,0.370371073484,0.927885174751,-0.010465295054,-0.00133175740484,0.0161258485168,0.84959590435,-0.17127032578,-9.54549026489
1609060339729981875,28419,1609060339729981875,-0.0101374359801,0.0418510362506,0.37038654089,0.927879035473,-0.0086026256904,0.00117683957797,0.0150744700804,0.795800924301,-0.196574777365,-9.63145828247
1609060339730053441,28420,1609060339730053441,-0.0101472148672,0.0418431013823,0.370401293039,0.927873432636,-0.00661648949608,0.00328387040645,0.0142341088504,0.826000392437,-0.255071073771,-9.52466201782
1609060339735132072,28421,1609060339735132072,-0.0101617518812,0.0418284237385,0.370413184166,0.927869141102,-0.00704086059704,-0.000385923020076,0.0126456189901,0.839634299278,-0.279477983713,-9.58649635315
1609060339735153250,28422,1609060339735153250,-0.0101678930223,0.0418240241706,0.370417654514,0.927867591381,-0.00603423500434,0.000361065089237,0.0115521494299,0.804973125458,-0.303762018681,-9.64851951599
1609060339740243453,28423,1609060339740243453,-0.0101742371917,0.0418143868446,0.370427876711,0.927863836288,-0.00221662502736,0.00101271376479,0.0109865227714,0.837848186493,-0.368153244257,-9.58065605164
1609060339740270706,28424,1609060339740270706,-0.0101702613756,0.0418040715158,0.370425254107,0.927865386009,0.000376135925762,-0.00244620093144,0.00800915900618,0.842467784882,-0.354340195656,-9.53050041199
1609060339746510129,28425,1609060339746510129,-0.0101776411757,0.0418012440205,0.370430260897,0.927863419056,0.0010945328977,0.000228676944971,0.00582092022523,0.777497589588,-0.414342164993,-9.64927387238
1609060339746621606,28426,1609060339746621606,-0.0101693337783,0.0417981855571,0.370426356792,0.927865207195,0.00418012589216,0.00253409799188,0.00271062552929,0.798822999001,-0.418093860149,-9.65622901917
1609060339751709262,28427,1609060339751709262,-0.0101670091972,0.0417956970632,0.370422631502,0.927866816521,0.00799387227744,0.00119587685913,-0.000899588223547,0.780035614967,-0.372303724289,-9.60866737366
1609060339751729474,28428,1609060339751729474,-0.0101559823379,0.0417903512716,0.370414823294,0.927870333195,0.00873848702759,-6.69364526402e-05,-0.00260019418783,0.797149479389,-0.414145380259,-9.64428710938
1609060339756931796,28429,1609060339756931796,-0.010146830231,0.0417928621173,0.370405495167,0.927874028683,0.0121084786952,0.000766123645008,-0.00481869652867,0.812200427055,-0.420846939087,-9.67228507996
1609060339757075632,28431,1609060339757075632,-0.0101199103519,0.0418015010655,0.370381712914,0.927883446217,0.016468802467,0.00388158578426,-0.00860985182226,0.855578005314,-0.354197382927,-9.65666007996
1609060339762183628,28432,1609060339762183628,-0.0100967315957,0.0418080203235,0.370367318392,0.927889108658,0.0185192879289,0.00274535594508,-0.0102529609576,0.815978348255,-0.294503509998,-9.61185741425
1609060339762209169,28433,1609060339762209169,-0.0100767211989,0.0418120138347,0.370348572731,0.927896678448,0.0228375997394,0.00188691623043,-0.0123872393742,0.824017643929,-0.301961243153,-9.61106491089
1609060339767284860,28434,1609060339767284860,-0.0100534083322,0.0418252013624,0.37033957243,0.927899956703,0.0240870416164,0.00449285609648,-0.0128008760512,0.809019327164,-0.255180180073,-9.6843662262
1609060339767305838,28435,1609060339767305838,-0.0100355166942,0.0418324619532,0.370322555304,0.927906572819,0.0237537827343,0.00602917652577,-0.0120460074395,0.847712934017,-0.20056386292,-9.64019680023
1609060339772431134,28436,1609060339772431134,-0.0100162662566,0.0418444238603,0.370312124491,0.927910327911,0.0234921388328,0.00526545289904,-0.012602978386,0.876114189625,-0.173673063517,-9.61491966248
1609060339772461582,28437,1609060339772461582,-0.00999660883099,0.0418576151133,0.370293587446,0.927917420864,0.0250530578196,0.00720345880836,-0.0131872706115,0.839814841747,-0.127630740404,-9.63014411926
1609060339778646257,28438,1609060339778646257,-0.00997695606202,0.0418654233217,0.370270013809,0.927926659584,0.0253068543971,0.00521898875013,-0.0131356576458,0.864657282829,-0.0855877399445,-9.58354663849
1609060339778811061,28440,1609060339778811061,-0.00994911883026,0.0418902598321,0.370233982801,0.927940249443,0.0233854092658,0.00707816984504,-0.0104590803385,0.856426417828,-0.015888735652,-9.66760730743
1609060339783907756,28441,1609060339783907756,-0.00993474572897,0.041900202632,0.370222359896,0.927944600582,0.0215496290475,0.0068744532764,-0.00876435544342,0.849842250347,-0.0195840969682,-9.63752937317
1609060339789140982,28442,1609060339789140982,-0.00992915127426,0.0419050753117,0.370216757059,0.92794662714,0.018758174032,0.00489165075123,-0.00723753217608,0.856663286686,0.0380283370614,-9.5391368866
1609060339789284245,28444,1609060339789284245,-0.00992087088525,0.0419193580747,0.370208144188,0.927949547768,0.014801136218,0.00620055571198,-0.00364988273941,0.855006337166,0.107474632561,-9.60600852966
1609060339794439435,28445,1609060339794439435,-0.00991753488779,0.0419213697314,0.37020522356,0.927950680256,0.0124055705965,0.00480313505977,-0.0018406448653,0.848873376846,0.113902151585,-9.59456062317
1609060339794533630,28446,1609060339794533630,-0.00992610678077,0.0419218689203,0.370203882456,0.927951097488,0.00773274526,0.00388617953286,0.000684432918206,0.853687763214,0.105040408671,-9.59126186371
1609060339799624673,28447,1609060339799624673,-0.00992833822966,0.0419261045754,0.37020856142,0.927949011326,0.00585534563288,0.00556142441928,0.00390711333603,0.825301527977,0.118112936616,-9.64267158508
1609060339799647070,28448,1609060339799647070,-0.00994077883661,0.0419259741902,0.370214283466,0.927946507931,0.00427058525383,0.00606128433719,0.00690545607358,0.807004094124,0.141788676381,-9.58001708984
1609060339804725049,28449,1609060339804725049,-0.0099488068372,0.0419209674001,0.370223730803,0.927942872047,0.000669059925713,0.00349456188269,0.00876282900572,0.801319122314,0.122237056494,-9.57025909424
1609060339804743308,28450,1609060339804743308,-0.00996865611523,0.041922852397,0.370235770941,0.927937865257,-0.0017400002107,0.00544385239482,0.0100439991802,0.784642517567,0.137122228742,-9.5970993042
1609060339809816089,28451,1609060339809816089,-0.00997980870306,0.0419140942395,0.370249986649,0.92793238163,-0.00354738533497,0.00452547520399,0.0120235290378,0.786637544632,0.0796027779579,-9.57098770142
1609060339809836931,28452,1609060339809836931,-0.0100049106404,0.0419085286558,0.370266824961,0.92792570591,-0.00662729609758,0.00268847751431,0.013956964016,0.793381333351,0.0351937562227,-9.58948135376
1609060339814915801,28453,1609060339814915801,-0.0100223589689,0.0419024080038,0.37028503418,0.927918493748,-0.0086473133415,0.00461326120421,0.015597216785,0.822836756706,0.0293369330466,-9.57260704041
1609060339814939397,28454,1609060339814939397,-0.0100431749597,0.0418936349452,0.370301902294,0.927911937237,-0.00782699324191,0.00255952123553,0.016811106354,0.806527078152,0.00658441334963,-9.51823329926
1609060339820024817,28455,1609060339820024817,-0.0100590409711,0.0418880097568,0.370320290327,0.927904725075,-0.00716828973964,0.00251031341031,0.0169069115072,0.800185084343,-0.0255587454885,-9.54027175903
1609060339820045137,28456,1609060339820045137,-0.0100801177323,0.0418764725327,0.370339155197,0.927897453308,-0.00864693522453,0.00220795790665,0.01767016761,0.822597205639,-0.0735459551215,-9.55902099609
1609060339825144263,28457,1609060339825144263,-0.0100964978337,0.0418652482331,0.370353966951,0.927891910076,-0.00960094574839,0.000190036662389,0.0160774495453,0.81680893898,-0.0976751148701,-9.53849029541
1609060339825169059,28458,1609060339825169059,-0.0101141426712,0.0418560691178,0.370368689299,0.927886247635,-0.00892062298954,0.000869645504281,0.0146105941385,0.836784601212,-0.174665331841,-9.5355091095
1609060339830243118,28459,1609060339830243118,-0.0101322736591,0.0418455675244,0.370384633541,0.927880167961,-0.00948438048363,0.00140116573311,0.0150731038302,0.818770468235,-0.17486846447,-9.57656288147
1609060339830262838,28460,1609060339830262838,-0.010144543834,0.0418347716331,0.370400905609,0.927874028683,-0.00899316556752,0.000638034776784,0.0157005321234,0.81910854578,-0.241958722472,-9.5791311264
1609060339835334738,28461,1609060339835334738,-0.0101574910805,0.041827827692,0.370411962271,0.927869796753,-0.0064529213123,0.00118150049821,0.0137204490602,0.842764496803,-0.295305967331,-9.5814037323
1609060339835352456,28462,1609060339835352456,-0.0101605057716,0.0418179631233,0.370424985886,0.927864968777,-0.0041947257705,0.000644332205411,0.0108554400504,0.823226034641,-0.306850373745,-9.56578731537
1609060339840426129,28463,1609060339840426129,-0.0101720076054,0.0418100729585,0.370434135199,0.927861571312,-0.00376342819072,7.06828141119e-05,0.0100334938616,0.81649941206,-0.348714888096,-9.57643222809
1609060339840441527,28464,1609060339840441527,-0.0101706981659,0.0418009907007,0.370441615582,0.927859008312,-0.00184975215234,-8.57329796418e-05,0.00774007290602,0.802103817463,-0.353898078203,-9.62040328979
1609060339845514555,28465,1609060339845514555,-0.0101732937619,0.0417989268899,0.370444387197,0.927857995033,0.00243480503559,0.000743734883144,0.00520364847034,0.802327871323,-0.397784233093,-9.64501094818
1609060339845531435,28466,1609060339845531435,-0.0101651586592,0.0417933836579,0.370444953442,0.927857995033,0.00559720396996,0.00112534023356,0.00315933255479,0.813355147839,-0.420598775148,-9.68677616119
1609060339851055242,28467,1609060339851055242,-0.0101650087163,0.0417949669063,0.370441496372,0.927859306335,0.00727112730965,0.00205874699168,0.000549338874407,0.801277637482,-0.382653355598,-9.6467666626
1609060339851092467,28468,1609060339851092467,-0.0101515585557,0.0417924709618,0.370434254408,0.927862524986,0.00984509009868,0.00238958932459,-0.00272891507484,0.816409230232,-0.385096728802,-9.62318611145
1609060339856172283,28469,1609060339856172283,-0.0101449145004,0.0417946428061,0.370426118374,0.927865743637,0.0124254152179,0.00163187994622,-0.00462980894372,0.809660315514,-0.378265559673,-9.65098381042
1609060339856195512,28470,1609060339856195512,-0.0101325539872,0.0418028384447,0.37041965127,0.927868127823,0.0137078855187,0.00572106102481,-0.00579901784658,0.802020072937,-0.352833002806,-9.66361808777
1609060339861270299,28471,1609060339861270299,-0.0101171601564,0.0418040826917,0.370405554771,0.927873849869,0.0169277656823,0.00406557740644,-0.00823455117643,0.825775027275,-0.343788295984,-9.58113479614
1609060339861288647,28472,1609060339861288647,-0.0100941061974,0.0418090000749,0.370393335819,0.927878677845,0.0204618852586,0.00112621858716,-0.0105734542012,0.787952244282,-0.33824557066,-9.62258911133
1609060339866357904,28473,1609060339866357904,-0.0100800292566,0.04181715101,0.370375812054,0.927885532379,0.0210607722402,0.00387871544808,-0.0120181627572,0.823939740658,-0.321772843599,-9.67204093933
1609060339866475705,28474,1609060339866475705,-0.0100557403639,0.041823040694,0.370365947485,0.927889466286,0.0217381063849,0.00410567782819,-0.0120754418895,0.861727893353,-0.234346956015,-9.61811351776
1609060339871552134,28475,1609060339871552134,-0.0100332880393,0.0418290905654,0.370346128941,0.927897393703,0.0245781391859,0.0020788104739,-0.0129536557943,0.903951048851,-0.194602489471,-9.6112279892
1609060339871575295,28476,1609060339871575295,-0.0100160986185,0.0418502688408,0.370333492756,0.927901625633,0.0260995384306,0.00703489221632,-0.0139315174893,0.87379103899,-0.155830457807,-9.65509796143
1609060339876650604,28477,1609060339876650604,-0.00999460183084,0.041855238378,0.37031725049,0.92790812254,0.025518104434,0.00678217597306,-0.0123999789357,0.833310425282,-0.14209420979,-9.55452060699
1609060339876668621,28478,1609060339876668621,-0.00997775048018,0.041862655431,0.370301812887,0.927914142609,0.0235450174659,0.00224732654169,-0.0120376050472,0.862713813782,-0.114553570747,-9.54784297943
1609060339881746277,28479,1609060339881746277,-0.00996287632734,0.0418768450618,0.370287597179,0.927919328213,0.0224144794047,0.00666436739266,-0.0111810965464,0.834471523762,-0.00370594649576,-9.64143562317
1609060339881778165,28481,1609060339881778165,-0.00993567798287,0.0418922454119,0.370261162519,0.927929461002,0.0217768382281,0.00408207904547,-0.00976885855198,0.872711896896,0.0149760358036,-9.61208724976
1609060339886853752,28482,1609060339886853752,-0.00993121694773,0.0419009290636,0.370251685381,0.927932918072,0.0196244977415,0.00568716274574,-0.00841102935374,0.861406862736,0.031439371407,-9.64093017578
1609060339886870946,28483,1609060339886870946,-0.00992471538484,0.0419104211032,0.370244562626,0.927935361862,0.0162576436996,0.00704589765519,-0.00549828261137,0.87373226881,0.0487690828741,-9.5368347168
1609060339891941808,28484,1609060339891941808,-0.0099250683561,0.0419111102819,0.370241731405,0.92793649435,0.0131828188896,0.00482501415536,-0.002795368433,0.862995862961,0.111962214112,-9.52111816406
1609060339891959315,28485,1609060339891959315,-0.00992335751653,0.0419153831899,0.370237797499,0.927937865257,0.0105737634003,0.00360218412243,-0.00156294391491,0.846594035625,0.10648624599,-9.61350917816
1609060339897027942,28486,1609060339897027942,-0.00993166957051,0.0419246815145,0.370237618685,0.927937448025,0.00885400362313,0.00821968354285,0.00101045309566,0.829673171043,0.123601749539,-9.63353538513
1609060339897039881,28487,1609060339897039881,-0.00993492733687,0.041918836534,0.370241910219,0.927935957909,0.00536309927702,0.00521655287594,0.00436790380627,0.825709819794,0.155453667045,-9.54836654663
1609060339902111923,28488,1609060339902111923,-0.00994941685349,0.0419171974063,0.370246499777,0.92793405056,0.00141197629273,0.00216385885142,0.00620274990797,0.812253534794,0.117320284247,-9.53484725952
1609060339902129632,28489,1609060339902129632,-0.00995996873826,0.0419183671474,0.370253294706,0.927931189537,-0.000300939544104,0.00585541967303,0.00724273128435,0.792846441269,0.0682877898216,-9.64621067047
1609060339907203902,28490,1609060339907203902,-0.00997951067984,0.0419196113944,0.370257914066,0.92792904377,-0.00181168620475,0.00801303517073,0.00913015939295,0.811145067215,0.141419231892,-9.6058216095
1609060339907216126,28491,1609060339907216126,-0.00998974684626,0.0419115610421,0.3702711761,0.92792391777,-0.00318039464764,0.00456111831591,0.0118374172598,0.842287063599,0.114467896521,-9.51719474792
1609060339912344038,28492,1609060339912344038,-0.0100133260712,0.041909430176,0.370280116796,0.927920222282,-0.00541639234871,0.00350702786818,0.0136019289494,0.820987522602,0.028757950291,-9.53239822388
1609060339912430634,28493,1609060339912430634,-0.0100282384083,0.0419028289616,0.370294898748,0.927914500237,-0.00696477014571,0.00473825493827,0.014168061316,0.80558514595,0.0324035398662,-9.55986404419
1609060339917715571,28494,1609060339917715571,-0.01004961133,0.0418930575252,0.370299071074,0.927913069725,-0.00765071855858,0.00199593696743,0.0148930419236,0.818863868713,0.0319769605994,-9.53458690643
1609060339917852900,28495,1609060339917852900,-0.0100669171661,0.0418876297772,0.370318561792,0.927905321121,-0.00845312327147,0.00280332751572,0.0169184338301,0.830300450325,-0.051473531872,-9.56398487091
1609060339922943575,28496,1609060339922943575,-0.010085972026,0.0418810322881,0.370322823524,0.927903711796,-0.00810173712671,0.00389055768028,0.0169637482613,0.82919460535,-0.112893559039,-9.55950641632
1609060339922962184,28497,1609060339922962184,-0.0101048732176,0.0418681353331,0.370340406895,0.92789709568,-0.00976225826889,0.00134119112045,0.016015091911,0.817712783813,-0.0858360975981,-9.51745414734
1609060339928034106,28498,1609060339928034106,-0.010123080574,0.0418581105769,0.370358586311,0.927890062332,-0.0102851334959,0.000279990112176,0.016037017107,0.819077253342,-0.165408939123,-9.54523086548
1609060339928052217,28499,1609060339928052217,-0.0101380227134,0.0418513119221,0.370373398066,0.927884280682,-0.00786004215479,0.00195642653853,0.0149735687301,0.812601804733,-0.194193869829,-9.5589761734
1609060339933147102,28500,1609060339933147102,-0.0101469289511,0.0418438054621,0.370390534401,0.927877664566,-0.00569436419755,0.00244293827564,0.0145574184135,0.828011453152,-0.251729786396,-9.54888916016
1609060339933218867,28501,1609060339933218867,-0.0101603399962,0.0418335422873,0.370403856039,0.927872717381,-0.00561397522688,0.000921649450902,0.0138991354033,0.847986638546,-0.314724564552,-9.54404449463
1609060339938305012,28502,1609060339938305012,-0.0101630650461,0.0418231934309,0.370407938957,0.927871525288,-0.00501758325845,-0.00077279121615,0.0114120254293,0.835285186768,-0.344914257526,-9.54842376709
1609060339938328014,28503,1609060339938328014,-0.0101734912023,0.0418150797486,0.370416790247,0.927868247032,-0.0035080416128,-0.000424393510912,0.0095857065171,0.829177081585,-0.37040656805,-9.6243057251
1609060339943562150,28504,1609060339943562150,-0.0101728057489,0.0418071597815,0.370418071747,0.927868068218,-0.00174606533255,0.000178141781362,0.00849080830812,0.791212975979,-0.360522508621,-9.66225528717
1609060339943586896,28505,1609060339943586896,-0.0101782837883,0.041803792119,0.37042170763,0.927866756916,0.000889106362592,0.00119413202628,0.00634759617969,0.787425756454,-0.407304644585,-9.64412593842
1609060339948666603,28506,1609060339948666603,-0.0101703489199,0.0417989343405,0.370415002108,0.927869737148,0.00428093038499,0.00141684117261,0.00299712014385,0.832542479038,-0.437868386507,-9.65000343323
1609060339948689140,28507,1609060339948689140,-0.0101715466008,0.0418012961745,0.370411098003,0.92787116766,0.00685281027108,0.00289381993935,-9.68822860159e-05,0.79059535265,-0.387534618378,-9.65541172028
1609060339958293740,28508,1609060339958293740,-0.0101605020463,0.041797965765,0.37039989233,0.927875936031,0.00832102168351,0.00299038458616,-0.00198311265558,0.798167943954,-0.366935133934,-9.61485099792
1609060339958340488,28511,1609060339958340488,-0.0101210419089,0.0418136008084,0.37036511302,0.92788952589,0.0183360725641,0.00748927798122,-0.00917003117502,0.812152147293,-0.36786916852,-9.62857723236
1609060339963413859,28512,1609060339963413859,-0.0100992880762,0.0418158322573,0.370352089405,0.927894890308,0.0190443899482,0.00205297907814,-0.00976924691349,0.853855133057,-0.319115459919,-9.55924320221
1609060339963431368,28513,1609060339963431368,-0.0100865662098,0.0418277718127,0.370335996151,0.927900791168,0.0201842281967,0.00479631824419,-0.0107250865549,0.838165283203,-0.288001179695,-9.68428897858
1609060339968493691,28514,1609060339968493691,-0.0100633371621,0.041842404753,0.370320111513,0.927906751633,0.0228800699115,0.00887887738645,-0.0113252988085,0.804649710655,-0.203783378005,-9.65466785431
1609060339968519806,28515,1609060339968519806,-0.0100400047377,0.0418450795114,0.370301485062,0.927914381027,0.0254947431386,0.00384921161458,-0.0123829161748,0.871302068233,-0.206801906228,-9.58590888977
1609060339973589337,28516,1609060339973589337,-0.0100206006318,0.0418634153903,0.370283424854,0.927920937538,0.0258833486587,0.00480229686946,-0.0132409315556,0.874580204487,-0.195458397269,-9.64004802704
1609060339973602308,28517,1609060339973602308,-0.0100018261001,0.0418741852045,0.370264530182,0.9279281497,0.0253926254809,0.00848945323378,-0.0133050894365,0.816048502922,-0.161652222276,-9.63072776794
1609060339978679297,28518,1609060339978679297,-0.00998452771455,0.0418810620904,0.370245784521,0.927935540676,0.0231232028455,0.0049585448578,-0.0135020259768,0.876068115234,-0.119129389524,-9.55895709991
1609060339978701870,28519,1609060339978701870,-0.00996779464185,0.0418949536979,0.370231956244,0.927940607071,0.0227347891778,0.00643672328442,-0.011336944066,0.844692051411,-0.0129556590691,-9.65500068665
1609060339983798738,28520,1609060339983798738,-0.0099548054859,0.0419055260718,0.37021535635,0.927946865559,0.0237688850611,0.00714417314157,-0.0102572971955,0.866793394089,-0.0163521021605,-9.66480636597
1609060339983816297,28521,1609060339983816297,-0.00993950292468,0.0419179387391,0.370203793049,0.927951097488,0.0229811128229,0.00681443372741,-0.00932435505092,0.890669822693,0.00360348261893,-9.59334754944
1609060339988889446,28522,1609060339988889446,-0.00993436202407,0.041921634227,0.370189577341,0.927956700325,0.0193796567619,0.00476194079965,-0.00727339554578,0.871321439743,0.0362562388182,-9.53861618042
1609060339988916998,28524,1609060339988916998,-0.00992709491402,0.0419338159263,0.370172858238,0.927962839603,0.0138771962374,0.00546360388398,-0.00359854125418,0.836468696594,0.137831613421,-9.59616088867
1609060339993985793,28525,1609060339993985793,-0.00992435123771,0.0419369749725,0.370169490576,0.927964091301,0.0115099921823,0.00381570938043,-0.00149211334065,0.823599040508,0.139250382781,-9.60003185272
1609060339999069236,28526,1609060339999069236,-0.0099339261651,0.0419448912144,0.370177209377,0.927960574627,0.00868422910571,0.00741083547473,0.000221930327825,0.807113647461,0.131667852402,-9.61755275726
1609060339999109982,28528,1609060339999109982,-0.00994908530265,0.0419413745403,0.37019598484,0.927953064442,0.00317187653854,0.00326260807924,0.00614694319665,0.829126656055,0.110018856823,-9.56969261169
1609060340004183952,28529,1609060340004183952,-0.00995727628469,0.0419412255287,0.370206058025,0.927949011326,0.000806171563454,0.00522711314261,0.00902109500021,0.800540149212,0.0975859165192,-9.63561058044
1609060340009272122,28530,1609060340009272122,-0.00997587572783,0.0419435203075,0.370218604803,0.927943706512,-0.000540309178177,0.00730141531676,0.0104594696313,0.805016160011,0.113291434944,-9.58620834351
1609060340009294350,28531,1609060340009294350,-0.00998743064702,0.0419363938272,0.370231568813,0.927938699722,-0.00288149993867,0.00521597871557,0.011604718864,0.800776600838,0.0718265324831,-9.55926036835
1609060340014365271,28532,1609060340014365271,-0.0100154429674,0.0419385805726,0.370249301195,0.927931249142,-0.00649712514132,0.00655236560851,0.0136901605874,0.792433023453,0.0660063773394,-9.59523105621
1609060340014386630,28533,1609060340014386630,-0.0100305657834,0.0419323444366,0.37026616931,0.927924633026,-0.00776162790135,0.00742242531851,0.0153104886413,0.804663598537,0.0540851093829,-9.55091094971
1609060340020873287,28534,1609060340020873287,-0.0100499847904,0.0419237650931,0.370287239552,0.927916407585,-0.00624233298004,0.00214717583731,0.0160743314773,0.812122941017,-0.00295196822844,-9.52243328094
1609060340020909248,28536,1609060340020909248,-0.0100894477218,0.0419102013111,0.370327234268,0.92790055275,-0.00902210827917,0.00393776316196,0.0168326143175,0.819797813892,-0.0909334048629,-9.60028457642
1609060340025980662,28537,1609060340025980662,-0.0101086115465,0.0418985411525,0.370345294476,0.927893698215,-0.0105610005558,0.000624146312475,0.0175029635429,0.830230772495,-0.121201232076,-9.51865386963
1609060340025993379,28538,1609060340025993379,-0.0101260952652,0.0418916754425,0.370350062847,0.927891910076,-0.0101684387773,0.0019871625118,0.0165484622121,0.81578540802,-0.174173459411,-9.59324550629
1609060340031059840,28539,1609060340031059840,-0.0101436581463,0.041881531477,0.370366483927,0.927885651588,-0.00932120066136,0.002308053663,0.0158881917596,0.843386232853,-0.168507382274,-9.52789497375
1609060340031076567,28540,1609060340031076567,-0.0101553881541,0.0418722257018,0.370368033648,0.927885353565,-0.00810850039124,0.000712259905413,0.0145262600854,0.837760329247,-0.233364999294,-9.54669952393
1609060340036150665,28541,1609060340036150665,-0.0101664159447,0.0418628305197,0.370378762484,0.927881360054,-0.00546793127432,6.54745235806e-06,0.0121850604191,0.847751438618,-0.29535356164,-9.58908081055
1609060340036173879,28542,1609060340036173879,-0.0101725794375,0.0418568775058,0.370385348797,0.927878916264,-0.00455358950421,0.00134549313225,0.0106009542942,0.830497980118,-0.30607393384,-9.59871387482
1609060340041251945,28543,1609060340041251945,-0.0101808421314,0.0418447591364,0.370393335819,0.92787617445,-0.00387960346416,-8.16169194877e-05,0.00944834202528,0.830691576004,-0.344024121761,-9.59880065918
1609060340041274813,28544,1609060340041274813,-0.0101800160483,0.0418429113925,0.370392560959,0.927876532078,-0.000470445665997,0.000565134687349,0.00645886408165,0.834144711494,-0.3482657969,-9.66484260559
1609060340046347753,28545,1609060340046347753,-0.0101840682328,0.0418414846063,0.370398372412,0.927874267101,0.00271356897429,0.00390682835132,0.00568206422031,0.800620257854,-0.387952208519,-9.65531539917
1609060340046363495,28546,1609060340046363495,-0.010176951997,0.0418313518167,0.370396345854,0.927875638008,0.00405319873244,4.48264181614e-05,0.00374131812714,0.80208170414,-0.402564167976,-9.59274101257
1609060340051438814,28547,1609060340051438814,-0.0101785315201,0.0418306291103,0.370394170284,0.927876532078,0.00522169843316,-7.99585832283e-05,0.000361828831956,0.787124931812,-0.377242892981,-9.67360877991
1609060340051462159,28548,1609060340051462159,-0.0101671284065,0.0418304018676,0.37038692832,0.927879571915,0.00840958300978,0.00301656546071,-0.00170006300323,0.823737382889,-0.392784416676,-9.66740703583
1609060340056536461,28549,1609060340056536461,-0.010157989338,0.0418320335448,0.370379596949,0.927882492542,0.0128304697573,0.00228832289577,-0.0037391311489,0.825707495213,-0.397834390402,-9.65416145325
1609060340056554531,28550,1609060340056554531,-0.0101420627907,0.0418424829841,0.370365411043,0.92788785696,0.0161055549979,0.0053967628628,-0.00634766370058,0.796768784523,-0.384341418743,-9.67474269867
1609060340061629157,28551,1609060340061629157,-0.0101287579164,0.0418432578444,0.370351195335,0.927893638611,0.017652451992,0.00444281380624,-0.00924684759229,0.832552790642,-0.370435923338,-9.58385562897
1609060340061665879,28553,1609060340061665879,-0.0100920163095,0.0418572872877,0.370321065187,0.927905380726,0.0208532102406,0.00429491745308,-0.00987234152853,0.812356472015,-0.274432867765,-9.65848922729
1609060340066791045,28554,1609060340066791045,-0.0100673474371,0.0418680347502,0.370307803154,0.927910447121,0.0230525024235,0.00579885253683,-0.0115803880617,0.818430900574,-0.221544802189,-9.60958385468
1609060340066812522,28555,1609060340066812522,-0.0100428024307,0.0418753661215,0.370289862156,0.927917599678,0.0265983026475,0.00397359998897,-0.0123285613954,0.83166795969,-0.229944333434,-9.58898544312
1609060340071883472,28556,1609060340071883472,-0.0100228311494,0.0418881028891,0.370274841785,0.927923202515,0.0258642807603,0.00483493227512,-0.01308271382,0.825890958309,-0.193834885955,-9.62557888031
1609060340071904795,28557,1609060340071904795,-0.0100056417286,0.0418966449797,0.370258748531,0.927929461002,0.0232792384923,0.00638139154762,-0.0123856402934,0.817239820957,-0.125525161624,-9.57598209381
1609060340076979331,28558,1609060340076979331,-0.00998574960977,0.0419042930007,0.370239347219,0.927937090397,0.0237453114241,0.00398153671995,-0.012727893889,0.882050335407,-0.0968906804919,-9.58046722412
1609060340076998906,28559,1609060340076998906,-0.00996968802065,0.041921120137,0.370221972466,0.927943408489,0.0245750136673,0.00722652953118,-0.0132010020316,0.863097965717,-0.0131546510383,-9.61589622498
1609060340082068864,28560,1609060340082068864,-0.00995897036046,0.0419296137989,0.370205760002,0.927949607372,0.0230606459081,0.00759158050641,-0.0118033597246,0.883001387119,0.00871209986508,-9.59710121155
1609060340082085000,28561,1609060340082085000,-0.009944871068,0.0419380515814,0.370194941759,0.927953720093,0.0209715627134,0.00477987993509,-0.00911610946059,0.893389523029,0.0130200441927,-9.57136249542
1609060340087160648,28562,1609060340087160648,-0.00994003098458,0.0419464968145,0.37018430233,0.927957653999,0.0189905688167,0.00526794139296,-0.00697224214673,0.862347960472,0.039427228272,-9.54289722443
1609060340087179170,28563,1609060340087179170,-0.00993271917105,0.041951008141,0.370174795389,0.927961349487,0.0158654991537,0.00481747277081,-0.00654284004122,0.853412389755,0.0651282444596,-9.56952571869
1609060340092250352,28564,1609060340092250352,-0.00993090122938,0.041957449168,0.370170801878,0.92796254158,0.0145103624091,0.00479904841632,-0.0037416301202,0.840259671211,0.119622215629,-9.59313964844
1609060340092263881,28565,1609060340092263881,-0.00992626138031,0.04196408391,0.370169460773,0.927962839603,0.0136833451688,0.0060078445822,-0.000238664040808,0.834035634995,0.120727233589,-9.61210823059
1609060340097333820,28566,1609060340097333820,-0.00993363000453,0.0419679060578,0.370175629854,0.927960157394,0.0100002968684,0.00653677526861,0.00143647321966,0.819066524506,0.127758681774,-9.65486240387
1609060340097348353,28567,1609060340097348353,-0.00993913784623,0.0419687442482,0.370180219412,0.927958250046,0.00526748783886,0.00590060371906,0.00375745864585,0.837115824223,0.14131334424,-9.59289932251
1609060340102421675,28568,1609060340102421675,-0.00995296239853,0.0419666469097,0.370193779469,0.927952766418,0.00185204891022,0.0046615912579,0.00678248237818,0.840372264385,0.154759526253,-9.5283908844
1609060340102439364,28569,1609060340102439364,-0.00995859596878,0.0419623479247,0.37020072341,0.927950143814,0.0010064477101,0.00277456175536,0.00772967748344,0.785054862499,0.103905007243,-9.59343338013
1609060340107513940,28570,1609060340107513940,-0.00998088065535,0.0419660955667,0.370207518339,0.927947044373,-0.0013899874175,0.00656420458108,0.00927735120058,0.784749090672,0.102965965867,-9.6327753067
1609060340107533130,28571,1609060340107533130,-0.00999146793038,0.0419551692903,0.370221495628,0.927941858768,-0.00434243259951,0.00485351588577,0.0121661918238,0.813743948936,0.119618833065,-9.53313732147
1609060340112609398,28572,1609060340112609398,-0.0100127700716,0.0419510193169,0.370231837034,0.927937686443,-0.0053092231974,0.00154444796499,0.0136090582237,0.788934350014,0.0652903169394,-9.56819629669
1609060340112628897,28573,1609060340112628897,-0.0100302509964,0.0419493429363,0.370247215033,0.927931427956,-0.00652566878125,0.0060112439096,0.0142120616511,0.793444514275,0.0147190652788,-9.64675331116
1609060340117703049,28574,1609060340117703049,-0.0100506106392,0.0419384390116,0.370257884264,0.927927434444,-0.00794012378901,0.00401313230395,0.0152654340491,0.823343873024,-0.0132304299623,-9.57585334778
1609060340117721968,28575,1609060340117721968,-0.0100689250976,0.0419320426881,0.370276242495,0.927920222282,-0.00900325737894,0.00238939677365,0.0164927672595,0.812522530556,-0.018259735778,-9.54546546936
1609060340122795538,28576,1609060340122795538,-0.0100891785696,0.0419239141047,0.370288342237,0.927915453911,-0.00883028656244,0.00326543254778,0.0171442832798,0.786175787449,-0.0763474032283,-9.58501148224
1609060340122814715,28577,1609060340122814715,-0.0101056592539,0.0419099219143,0.370306611061,0.927908599377,-0.00927073322237,0.000166790327057,0.0170507784933,0.82594448328,-0.115646734834,-9.47842216492
1609060340127882214,28578,1609060340127882214,-0.0101235620677,0.0418979376554,0.37032571435,0.927901387215,-0.0101980669424,-0.0011735673761,0.0177060067654,0.823907732964,-0.189155861735,-9.56833934784
1609060340127895718,28579,1609060340127895718,-0.0101384697482,0.0418883413076,0.370339870453,0.927895963192,-0.00888920016587,0.000219725188799,0.0160180032253,0.805482208729,-0.185024932027,-9.62534141541
1609060340132968047,28580,1609060340132968047,-0.0101487366483,0.041879221797,0.370354056358,0.927890658379,-0.00680708698928,0.00111449311953,0.0139641845599,0.817367136478,-0.239799767733,-9.5357542038
1609060340132991891,28581,1609060340132991891,-0.0101624522358,0.0418616011739,0.370366573334,0.92788630724,-0.00751994969323,-0.00205191317946,0.0131703577936,0.822155714035,-0.303433060646,-9.56947422028
1609060340138070143,28582,1609060340138070143,-0.0101672932506,0.0418582223356,0.37036767602,0.927885949612,-0.00591998966411,-0.000327282585204,0.0110649121925,0.781247258186,-0.322966635227,-9.6070098877
1609060340138090283,28583,1609060340138090283,-0.0101753585041,0.0418500378728,0.370377242565,0.927882432938,-0.00237311189994,0.00233450299129,0.00998310931027,0.812332212925,-0.379858493805,-9.61364650726
1609060340143157694,28584,1609060340143157694,-0.0101725859568,0.041840095073,0.37037217617,0.927884936333,-0.000370180234313,-0.0011797756888,0.00738700339571,0.844304561615,-0.35604891181,-9.56617927551
1609060340143170347,28585,1609060340143170347,-0.0101770879701,0.0418372377753,0.370374381542,0.927884161472,0.00187596830074,0.000255761900917,0.00433725817129,0.78134560585,-0.398125052452,-9.64128875732
1609060340148261823,28586,1609060340148261823,-0.0101681966335,0.0418322384357,0.370372861624,0.927884995937,0.00526282191277,0.00126994436141,0.00159110710956,0.81943154335,-0.422737747431,-9.61423587799
1609060340148303367,28587,1609060340148303367,-0.0101670073345,0.041828930378,0.370369046926,0.927886664867,0.00741961225867,0.000243325950578,-0.000921930535696,0.808494329453,-0.38806027174,-9.64878368378
1609060340153390670,28588,1609060340153390670,-0.0101560410112,0.0418276973069,0.370363414288,0.927889168262,0.00876739434898,0.00122254691087,-0.00265613663942,0.802381515503,-0.403028488159,-9.71200656891
1609060340153413026,28589,1609060340153413026,-0.0101485522464,0.0418318808079,0.37035420537,0.927892684937,0.012307966128,0.00306135835126,-0.00478377379477,0.794173121452,-0.425819307566,-9.66742420197
1609060340158492323,28590,1609060340158492323,-0.0101312529296,0.0418347269297,0.370334029198,0.927900850773,0.0151936914772,0.00370513787493,-0.00660488614812,0.800023794174,-0.396226763725,-9.64915466309
1609060340158510137,28591,1609060340158510137,-0.0101215066388,0.0418381728232,0.370321393013,0.927905797958,0.0159903038293,0.00308517622761,-0.00806604791433,0.837591767311,-0.324343413115,-9.62491607666
1609060340163583490,28592,1609060340163583490,-0.0100995805115,0.0418440029025,0.370298326015,0.927914977074,0.018086399883,0.00327406683937,-0.00921678729355,0.810405373573,-0.277981758118,-9.58480834961
1609060340163602384,28593,1609060340163602384,-0.0100794248283,0.0418504662812,0.370281428099,0.927921652794,0.0224747806787,0.00284177483991,-0.0108640901744,0.820742547512,-0.288154214621,-9.60192298889
1609060340168744359,28594,1609060340168744359,-0.0100546944886,0.0418610908091,0.370260626078,0.927929759026,0.0245049633086,0.00427672080696,-0.0130047891289,0.806442201138,-0.264218896627,-9.6752948761
1609060340168776780,28595,1609060340168776780,-0.0100364470854,0.0418685413897,0.370242387056,0.927936911583,0.0239666122943,0.00492294877768,-0.0136006269604,0.872067928314,-0.245120793581,-9.63646125793
1609060340173850527,28596,1609060340173850527,-0.0100156627595,0.0418808311224,0.370221674442,0.927944839001,0.0236342251301,0.00519960979,-0.0135502889752,0.894424676895,-0.191586017609,-9.61861515045
1609060340173864572,28597,1609060340173864572,-0.00999526586384,0.0418961159885,0.370202094316,0.927952229977,0.0256140045822,0.00778767559677,-0.0140076186508,0.848984360695,-0.137843102217,-9.6008014679
1609060340179054264,28598,1609060340179054264,-0.0099791251123,0.0419035404921,0.370190501213,0.927956700325,0.0246319752187,0.00615687575191,-0.0127964336425,0.877498209476,-0.0972319468856,-9.57309436798
1609060340179070311,28599,1609060340179070311,-0.00995980855078,0.0419130325317,0.370175421238,0.927962481976,0.0232929829508,0.00417881458998,-0.0109386863187,0.847464084625,-0.0157081913203,-9.57564353943
1609060340184166451,28600,1609060340184166451,-0.00994605384767,0.0419225804508,0.370163440704,0.927966952324,0.0245398078114,0.0043953214772,-0.0109646078199,0.852459549904,-0.038603156805,-9.58172893524
1609060340184184454,28601,1609060340184184454,-0.00993450172246,0.0419315174222,0.370151907206,0.927971303463,0.0215109642595,0.00535067077726,-0.00955926254392,0.869939386845,-0.00641544722021,-9.57237815857
1609060340189292467,28602,1609060340189292467,-0.00993206817657,0.0419389419258,0.370151877403,0.92797100544,0.0172308087349,0.00586393335834,-0.00628016889095,0.85275053978,0.0639287903905,-9.57998371124
1609060340189312413,28603,1609060340189312413,-0.00992216356099,0.0419470258057,0.370143055916,0.927974283695,0.0164422653615,0.00579470582306,-0.00515673682094,0.86518239975,0.0717407613993,-9.60895633698
1609060340194387891,28604,1609060340194387891,-0.00992150977254,0.0419544428587,0.370144665241,0.927973270416,0.0158771704882,0.00621733255684,-0.00447817705572,0.856270194054,0.107424512506,-9.61811351776
1609060340194404456,28605,1609060340194404456,-0.00991917960346,0.0419566370547,0.370144098997,0.92797344923,0.0120423967019,0.00517276162282,-0.00109513639472,0.811058104038,0.0977981239557,-9.61009788513
1609060340199478663,28606,1609060340199478663,-0.00992596149445,0.0419569425285,0.370149314404,0.927971303463,0.00801569316536,0.00383489974774,0.00164616515394,0.816830575466,0.102770626545,-9.57500457764
1609060340199491255,28607,1609060340199491255,-0.00992884952575,0.0419602431357,0.37015452981,0.927969038486,0.00633146846667,0.00516762863845,0.00414986023679,0.81385153532,0.103981532156,-9.6204662323
1609060340204611232,28608,1609060340204611232,-0.00994249433279,0.0419642366469,0.370165079832,0.927964448929,0.00441985717043,0.00768989231437,0.00645386381075,0.813300430775,0.119979083538,-9.58265304565
1609060340204751193,28610,1609060340204751193,-0.00996878463775,0.0419567488134,0.37017840147,0.927959144115,-0.00199831859209,0.00358899030834,0.0104976771399,0.803019046783,0.116856813431,-9.59704113007
1609060340209831719,28611,1609060340209831719,-0.00998022221029,0.041952509433,0.370190382004,0.927954494953,-0.00350382342003,0.00494169769809,0.0115650575608,0.792728722095,0.0562632381916,-9.57731628418
1609060340209883783,28612,1609060340209883783,-0.0100038452074,0.041947234422,0.370198875666,0.927951097488,-0.00561979645863,0.00430883094668,0.0133940540254,0.775471568108,0.0373327583075,-9.58287143707
1609060340214955897,28613,1609060340214955897,-0.0100203361362,0.0419446863234,0.370215624571,0.927944362164,-0.0073329792358,0.00570157915354,0.0153985619545,0.801793038845,0.0541811846197,-9.56838226318
1609060340214971312,28614,1609060340214971312,-0.0100396024063,0.0419339165092,0.370219647884,0.927942931652,-0.00662880949676,0.0029340214096,0.0152185866609,0.823679208755,-0.0161548256874,-9.50482940674
1609060340220079823,28615,1609060340220079823,-0.0100564900786,0.0419246032834,0.37023717165,0.927936315536,-0.00779025629163,0.000478110247059,0.0154570434242,0.836594223976,-0.0519078709185,-9.51329898834
1609060340220159511,28616,1609060340220159511,-0.0100782243535,0.0419172607362,0.370244204998,0.927933573723,-0.00940563436598,0.00227582198568,0.0166458599269,0.808236837387,-0.0620941258967,-9.5553445816
1609060340225243026,28617,1609060340225243026,-0.0100944386795,0.0419073626399,0.370261639357,0.927926898003,-0.00924240797758,0.00195717904717,0.0166459493339,0.813527286053,-0.104789987206,-9.52235221863
1609060340225264364,28618,1609060340225264364,-0.010109690018,0.041897803545,0.370271474123,0.927923202515,-0.00811652652919,0.000953444337938,0.0160851180553,0.8308416605,-0.1837220788,-9.55132675171
1609060340230337539,28619,1609060340230337539,-0.0101282093674,0.0418879278004,0.370287835598,0.927916944027,-0.00894918013364,0.00130056566559,0.0155781554058,0.798657953739,-0.171179428697,-9.60257530212
1609060340230356849,28620,1609060340230356849,-0.0101377852261,0.0418741367757,0.370295375586,0.927914440632,-0.00870176125318,-0.000229427882005,0.0145430136472,0.799257993698,-0.226569890976,-9.59941673279
1609060340235437246,28621,1609060340235437246,-0.0101491780952,0.0418654419482,0.370307713747,0.92790979147,-0.00580727681518,-0.000857348262798,0.0129213742912,0.822187244892,-0.275047689676,-9.59692573547
1609060340235461789,28622,1609060340235461789,-0.0101525811478,0.0418563112617,0.37032020092,0.927905201912,-0.00384899554774,0.000278025720036,0.0112442858517,0.807356357574,-0.294334292412,-9.57827854156
1609060340240537414,28623,1609060340240537414,-0.010161315091,0.0418455712497,0.370328962803,0.92790210247,-0.0030988319777,-0.000885522691533,0.00973362568766,0.81678378582,-0.358615249395,-9.55986690521
1609060340240559639,28624,1609060340240559639,-0.0101617863402,0.0418409705162,0.370335191488,0.927899718285,-0.00122177496087,0.000364377890946,0.00715671898797,0.796603858471,-0.34786900878,-9.62177181244
1609060340245633919,28625,1609060340245633919,-0.0101646026596,0.0418357253075,0.370337039232,0.927899181843,0.00191613193601,0.00151378568262,0.00432220846415,0.766908347607,-0.387552499771,-9.68124675751
1609060340245650803,28626,1609060340245650803,-0.010160073638,0.0418310910463,0.370334714651,0.927900373936,0.0039695170708,0.00098947994411,0.00177084992174,0.803432762623,-0.445656657219,-9.67018222809
1609060340250723238,28627,1609060340250723238,-0.0101609844714,0.0418332405388,0.370333403349,0.927900850773,0.00582657754421,0.00344411144033,0.000525037467014,0.790560245514,-0.430795431137,-9.63623714447
1609060340250737257,28628,1609060340250737257,-0.0101457424462,0.0418275035918,0.370327115059,0.9279037714,0.00964272860438,0.00131582911126,-0.00102370919194,0.813381552696,-0.426831126213,-9.57591438293
1609060340255817023,28629,1609060340255817023,-0.0101393470541,0.0418302230537,0.370317846537,0.927907407284,0.0125827230513,0.000424858415499,-0.00431323889643,0.830527067184,-0.399442464113,-9.59282112122
1609060340255854642,28630,1609060340255854642,-0.0101257991046,0.0418395698071,0.370312690735,0.927909195423,0.0142437610775,0.00609455443919,-0.00566936051473,0.811188578606,-0.358456879854,-9.64096355438
1609060340260967390,28631,1609060340260967390,-0.0101080751047,0.0418369695544,0.370299518108,0.927914738655,0.017735928297,0.00242814933881,-0.00723297335207,0.825945734978,-0.342780441046,-9.5803194046
1609060340261048189,28632,1609060340261048189,-0.0100846290588,0.0418440997601,0.37028798461,0.927919268608,0.0214385911822,6.16768375039e-06,-0.0098278997466,0.794459402561,-0.333456426859,-9.63230991364
1609060340266157453,28633,1609060340266157453,-0.0100707542151,0.0418550148606,0.370271414518,0.9279255867,0.0220707021654,0.00559347542003,-0.0112115675583,0.810741066933,-0.310201138258,-9.69976043701
1609060340266202055,28634,1609060340266202055,-0.010047338903,0.041855532676,0.370248556137,0.92793494463,0.0211153700948,0.00323235662654,-0.0116295684129,0.835119128227,-0.245036095381,-9.59827899933
1609060340271379369,28635,1609060340271379369,-0.0100260674953,0.0418627336621,0.370229244232,0.92794251442,0.0233621038496,0.000746356090531,-0.0127447163686,0.859999835491,-0.216774985194,-9.60600852966
1609060340271443643,28636,1609060340271443643,-0.0100086154416,0.0418821312487,0.370203197002,0.927952229977,0.0251347701997,0.00767707359046,-0.0139295607805,0.854600727558,-0.147240385413,-9.70935821533
1609060340276513842,28637,1609060340276513842,-0.0099887624383,0.0418896712363,0.370187699795,0.927958250046,0.0245890021324,0.00802562292665,-0.012297661975,0.857797086239,-0.107858285308,-9.56434249878
1609060340276530552,28638,1609060340276530552,-0.00997252110392,0.0418974757195,0.370168566704,0.927965760231,0.0235818214715,0.00332906004041,-0.0116550568491,0.86052107811,-0.137425869703,-9.55147361755
1609060340281599538,28639,1609060340281599538,-0.00995680596679,0.0419125817716,0.370154172182,0.927970945835,0.0231433175504,0.00676091294736,-0.0111449351534,0.81157797575,-0.0466500595212,-9.68171691895
1609060340281615904,28641,1609060340281615904,-0.00992937944829,0.0419288128614,0.370126396418,0.927981615067,0.0207467954606,0.00517226103693,-0.00881559401751,0.878177702427,-0.002451274544,-9.59458065033
1609060340286762437,28642,1609060340286762437,-0.00992413889617,0.0419380664825,0.370115339756,0.927985668182,0.0188481397927,0.00766665767878,-0.00768431369215,0.856526434422,0.031804099679,-9.62059116364
1609060340286839545,28643,1609060340286839545,-0.00991639494896,0.0419427007437,0.370107799768,0.92798858881,0.0157706458122,0.00550261884928,-0.00584064656869,0.877581834793,0.0470947623253,-9.54617881775
1609060340291920861,28644,1609060340291920861,-0.00991609226912,0.041942179203,0.370105028152,0.927989721298,0.0129095613956,0.00230286479928,-0.0024104078766,0.873989522457,0.118520125747,-9.59127998352
1609060340291940917,28645,1609060340291940917,-0.00991200003773,0.041946452111,0.370102137327,0.927990734577,0.0114143015817,0.00272165238857,-0.000459966337075,0.853912711143,0.117214553058,-9.65634346008
1609060340297016317,28646,1609060340297016317,-0.00991913862526,0.0419554933906,0.37010410428,0.927989423275,0.0102200275287,0.00757513567805,0.000694237533025,0.817530870438,0.117757894099,-9.66221618652
1609060340297035999,28647,1609060340297035999,-0.00992199126631,0.0419522076845,0.37010961771,0.927987337112,0.00636976119131,0.00581501657143,0.00412948802114,0.811178803444,0.142154723406,-9.5539264679
1609060340302105345,28648,1609060340302105345,-0.00993482675403,0.0419469662011,0.370120048523,0.927983283997,0.00207752687857,0.00153875199612,0.00753300543875,0.824610590935,0.130932673812,-9.52768135071
1609060340302118880,28649,1609060340302118880,-0.00994314067066,0.0419474244118,0.370128542185,0.927979826927,0.000553595949896,0.00374466041103,0.00875562336296,0.764909029007,0.10911552608,-9.6938123703
1609060340307189577,28650,1609060340307189577,-0.00996164884418,0.0419513136148,0.370141118765,0.927974402905,-0.000577509694267,0.00856030732393,0.0110454624519,0.766526341438,0.124855212867,-9.67559719086
1609060340307209027,28651,1609060340307209027,-0.00997229106724,0.0419415161014,0.370155364275,0.927969038486,-0.00306782079861,0.00511107593775,0.0133775230497,0.836683273315,0.0980143472552,-9.47143363953
1609060340312284113,28652,1609060340312284113,-0.00999402347952,0.0419398806989,0.370169460773,0.927963256836,-0.00498411338776,0.00281311827712,0.0139535944909,0.793097853661,0.0391170196235,-9.50407409668
1609060340312305914,28653,1609060340312305914,-0.010010978207,0.0419351570308,0.3701851964,0.927956998348,-0.00660476088524,0.00563936354592,0.0145521946251,0.752773880959,0.00987483002245,-9.59435272217
1609060340317380968,28654,1609060340317380968,-0.0100300023332,0.0419219247997,0.370201945305,0.927950739861,-0.00859508477151,0.00223994301632,0.0157378632575,0.791186273098,0.00384173449129,-9.52520847321
1609060340317404193,28655,1609060340317404193,-0.0100496830419,0.0419162213802,0.370220661163,0.92794328928,-0.00980609841645,0.00228938041255,0.0169672518969,0.819651484489,-0.0365942120552,-9.54943943024
1609060340322482893,28656,1609060340322482893,-0.0100697055459,0.0419110506773,0.370236068964,0.927937150002,-0.00906507112086,0.0049446169287,0.016477515921,0.813705444336,-0.111027695239,-9.57987976074
1609060340322506361,28657,1609060340322506361,-0.0100851850584,0.0418983921409,0.370253741741,0.927930533886,-0.00851423759013,0.00173020653892,0.0160135664046,0.815624594688,-0.106597967446,-9.4885635376
1609060340327650960,28658,1609060340327650960,-0.0101042417809,0.0418903715909,0.370274096727,0.927922546864,-0.00938776601106,0.000920814170968,0.0171430911869,0.802594006062,-0.172264426947,-9.55095672607
1609060340327712358,28659,1609060340327712358,-0.0101202139631,0.041881699115,0.370289415121,0.927916705608,-0.00893908459693,0.00247065979056,0.0161733161658,0.821734428406,-0.197004377842,-9.5996799469
1609060340332798972,28660,1609060340332798972,-0.0101312110201,0.0418752208352,0.370306283236,0.927910149097,-0.00672161392868,0.00239965692163,0.0147476866841,0.834899365902,-0.230223894119,-9.60094070435
1609060340332820747,28661,1609060340332820747,-0.0101460404694,0.0418643802404,0.370319366455,0.927905142307,-0.00657630711794,0.00142007321119,0.0137798674405,0.851799190044,-0.287563621998,-9.60190868378
1609060340337895879,28662,1609060340337895879,-0.0101497098804,0.0418557971716,0.37032520771,0.927903234959,-0.00504019344226,-0.000252067111433,0.0111940018833,0.8329885602,-0.329597890377,-9.53679275513
1609060340337914368,28663,1609060340337914368,-0.0101586617529,0.0418458655477,0.3703327775,0.92790055275,-0.00262291706167,-0.000800406327471,0.00893226545304,0.828169703484,-0.364875644445,-9.60048103333
1609060340342982166,28664,1609060340342982166,-0.0101572861895,0.0418384671211,0.370335102081,0.927899956703,-0.00105272117071,-0.000641316233668,0.00748277548701,0.821083426476,-0.343801736832,-9.67644500732
1609060340342995212,28665,1609060340342995212,-0.0101624513045,0.0418375246227,0.370337545872,0.927899003029,0.00177669385448,0.00212338543497,0.00541889015585,0.808829665184,-0.403155326843,-9.6365852356
1609060340348061254,28666,1609060340348061254,-0.0101532926783,0.0418303906918,0.370345443487,0.927896261215,0.00513005349785,0.00111810979433,0.00239605177194,0.839159965515,-0.448629468679,-9.6173992157
1609060340348072651,28667,1609060340348072651,-0.0101528083906,0.0418307073414,0.370343893766,0.927896916866,0.00748654361814,0.000742393429391,0.000786004646216,0.795461058617,-0.427297860384,-9.62308979034
1609060340353144811,28668,1609060340353144811,-0.0101449061185,0.0418296307325,0.37034752965,0.927895545959,0.00801716092974,0.00321089522913,-0.00100309378468,0.803883552551,-0.385284423828,-9.62317085266
1609060340353164176,28669,1609060340353164176,-0.0101350657642,0.0418265201151,0.370337843895,0.92789965868,0.0111266076565,0.00052667025011,-0.0043938527815,0.795190691948,-0.344814360142,-9.65500831604
1609060340358233956,28670,1609060340358233956,-0.0101177459583,0.0418358258903,0.370317846537,0.927907407284,0.0160086750984,0.00306916609406,-0.0071012340486,0.800546348095,-0.371756136417,-9.73435020447
1609060340358247147,28671,1609060340358247147,-0.0101077919826,0.0418427959085,0.370303362608,0.927912950516,0.01763497293,0.00678346306086,-0.00907231681049,0.854355096817,-0.360811650753,-9.6905670166
1609060340363332270,28672,1609060340363332270,-0.0100858407095,0.041841994971,0.370280116796,0.927922546864,0.0178670622408,0.00197224086151,-0.0105489548296,0.846903085709,-0.309125125408,-9.60709571838
1609060340363363401,28673,1609060340363363401,-0.0100705642253,0.0418510101736,0.370264112949,0.927928626537,0.0201726388186,0.00194425228983,-0.0110763739794,0.838288962841,-0.315265387297,-9.66632461548
1609060340368483688,28674,1609060340368483688,-0.0100496020168,0.0418643578887,0.370239466429,0.927938103676,0.022331032902,0.00724797649309,-0.0116740185767,0.830296397209,-0.230533838272,-9.65676021576
1609060340368560686,28675,1609060340368560686,-0.010028809309,0.0418685786426,0.370221942663,0.927945137024,0.0236978828907,0.00464214524254,-0.0123071204871,0.879638969898,-0.166110932827,-9.58679008484
1609060340373663206,28676,1609060340373663206,-0.0100118322298,0.0418861620128,0.37019482255,0.927955329418,0.0246229991317,0.00557628739625,-0.0132485507056,0.865803420544,-0.177453875542,-9.65247917175
1609060340373680335,28677,1609060340373680335,-0.00999062228948,0.0418971702456,0.37017557025,0.927962779999,0.0258161835372,0.00803280714899,-0.0139110973105,0.827686667442,-0.164849132299,-9.64284324646
1609060340378747488,28678,1609060340378747488,-0.00997123215348,0.0419022627175,0.370161056519,0.927968561649,0.0247149411589,0.00356337195262,-0.0127311460674,0.864238739014,-0.108801729977,-9.56262969971
1609060340378760615,28679,1609060340378760615,-0.00995528046042,0.0419143661857,0.370145201683,0.927974462509,0.0228593144566,0.00476020900533,-0.0113347321749,0.852388978004,-0.0176409333944,-9.61597633362
1609060340383797278,28680,1609060340383797278,-0.00994188524783,0.0419256389141,0.370130777359,0.927979886532,0.0232747234404,0.00687432475388,-0.0111809903756,0.872484266758,-0.020990377292,-9.63747692108
1609060340383808020,28681,1609060340383808020,-0.00992962252349,0.0419377274811,0.370117723942,0.927984654903,0.0218527391553,0.00742567284033,-0.0100411763415,0.890111804008,0.013313934207,-9.57763671875
1609060340388879468,28682,1609060340388879468,-0.00992310326546,0.0419397503138,0.370104700327,0.927989900112,0.0182649940252,0.00444725621492,-0.00728960614651,0.86754244566,0.0655512884259,-9.54568004608
1609060340388902327,28683,1609060340388902327,-0.00991817377508,0.0419495552778,0.370097965002,0.927992165089,0.0150884352624,0.00470084045082,-0.00471320189536,0.852008104324,0.080726146698,-9.58737754822
1609060340393973740,28684,1609060340393973740,-0.00991764198989,0.0419570654631,0.370090335608,0.927994906902,0.0139750372618,0.0077567785047,-0.00238643726334,0.848799943924,0.1418505162,-9.60429573059
1609060340393992071,28685,1609060340393992071,-0.00991357676685,0.0419553406537,0.370086878538,0.927996277809,0.0118898795918,0.00360647356138,-0.00110852811486,0.847270667553,0.126532673836,-9.5386800766
1609060340399059873,28686,1609060340399059873,-0.00992381479591,0.0419639199972,0.370092719793,0.927993535995,0.00814618729055,0.00561810098588,0.000720232259482,0.831231594086,0.127083018422,-9.60890197754
1609060340399073516,28687,1609060340399073516,-0.00992584135383,0.0419624224305,0.370094925165,0.927992641926,0.0058143674396,0.00662229489535,0.00307781947777,0.823505043983,0.168578714132,-9.60988426208
1609060340404176454,28688,1609060340404176454,-0.00993623957038,0.0419592782855,0.370107769966,0.927987635136,0.00396898249164,0.00244537228718,0.00597640872002,0.832594096661,0.143711984158,-9.52788257599
1609060340404209818,28689,1609060340404209818,-0.00994617305696,0.0419615767896,0.370115995407,0.927984118462,0.00148891971912,0.0050380975008,0.00847167335451,0.800192415714,0.0709941387177,-9.62173271179
1609060340409280139,28690,1609060340409280139,-0.00996465981007,0.0419660843909,0.370123326778,0.927980780602,-0.000913503929041,0.00946868211031,0.0096220318228,0.798889398575,0.0935360044241,-9.53646659851
1609060340409296717,28691,1609060340409296717,-0.00997032597661,0.0419528707862,0.370137780905,0.927975535393,-0.00174148567021,0.0030889401678,0.0122121628374,0.818141818047,0.0897593647242,-9.45308017731
1609060340414365123,28692,1609060340414365123,-0.00999416131526,0.0419520512223,0.370148003101,0.927971243858,-0.00427063368261,0.00150591332931,0.013354498893,0.797420918941,0.059397444129,-9.57811737061
1609060340414378317,28693,1609060340414378317,-0.0100119905546,0.0419469587505,0.370164632797,0.927964627743,-0.00762626621872,0.0063333325088,0.0141978058964,0.792730510235,0.0304869711399,-9.58027267456
1609060340419453224,28694,1609060340419453224,-0.0100287506357,0.0419341623783,0.370183825493,0.927957355976,-0.00750483199954,0.00149147119373,0.0158429816365,0.822363376617,-0.0137459328398,-9.5094203949
1609060340419472172,28695,1609060340419472172,-0.0100471749902,0.0419332906604,0.370201319456,0.927950263023,-0.0071156648919,0.00315181841142,0.0162276774645,0.816803574562,-0.0185703709722,-9.62104415894
1609060340424582280,28696,1609060340424582280,-0.010070072487,0.0419242344797,0.370222240686,0.927942097187,-0.00927563104779,0.00549945514649,0.0169001314789,0.799008727074,-0.067906871438,-9.57728862762
1609060340424626113,28698,1609060340424626113,-0.0101027237251,0.0419056564569,0.370255738497,0.927929162979,-0.00832402799278,0.00122860749252,0.0168378427625,0.79365247488,-0.21124972403,-9.59110450745
1609060340429708906,28699,1609060340429708906,-0.010121114552,0.0418961085379,0.37027195096,0.927922964096,-0.00812857225537,0.00292265973985,0.0158881954849,0.842505216599,-0.186606243253,-9.55896377563
1609060340429737689,28700,1609060340429737689,-0.0101332357153,0.0418891645968,0.370283156633,0.927918672562,-0.00805104617029,0.00211399304681,0.0141972191632,0.853828310966,-0.207901537418,-9.55715560913
1609060340434819891,28701,1609060340434819891,-0.0101445671171,0.0418759323657,0.370295256376,0.927914321423,-0.00589996716008,-0.000312495423714,0.0125078819692,0.847166836262,-0.319365084171,-9.57468223572
1609060340434844278,28702,1609060340434844278,-0.0101509736851,0.0418726876378,0.370312452316,0.927907526493,-0.00464209727943,0.000963151513133,0.011578512378,0.830775439739,-0.32097619772,-9.57538986206
1609060340439918171,28703,1609060340439918171,-0.010160414502,0.0418608039618,0.370322704315,0.92790389061,-0.00370720284991,0.00117826438509,0.0108169037849,0.805308282375,-0.358663529158,-9.60175800323
1609060340439938156,28704,1609060340439938156,-0.0101580610499,0.0418542698026,0.370332866907,0.927900195122,-0.000812764978036,-0.0010223230347,0.0078938100487,0.819769144058,-0.387471497059,-9.58518314362
1609060340445009514,28705,1609060340445009514,-0.0101631237194,0.0418548770249,0.370336979628,0.927898347378,0.0027727605775,0.00296129053459,0.00548235699534,0.80345749855,-0.406708985567,-9.63147544861
1609060340445026338,28706,1609060340445026338,-0.0101571893319,0.0418479070067,0.370339274406,0.927897810936,0.00411960901693,0.00226265448146,0.0029047599528,0.837409734726,-0.403387248516,-9.55108261108
1609060340450099104,28707,1609060340450099104,-0.0101572051644,0.0418483130634,0.370336949825,0.927898705006,0.00608140323311,0.00142008427065,0.00019033101853,0.795780837536,-0.33570381999,-9.60380935669
1609060340450116056,28708,1609060340450116056,-0.0101457359269,0.0418498888612,0.3703353405,0.927899479866,0.00950054451823,0.00381560064852,-0.00131425494328,0.808078765869,-0.357026576996,-9.66471099854
1609060340455190796,28709,1609060340455190796,-0.0101368362084,0.0418497733772,0.370325446129,0.927903532982,0.0128677273169,0.00227868719958,-0.00444029830396,0.805097162724,-0.393902212381,-9.66052341461
1609060340455207939,28710,1609060340455207939,-0.0101226856932,0.0418576970696,0.370312541723,0.927908480167,0.0147886332124,0.00420323060825,-0.00686969514936,0.79892629385,-0.37239831686,-9.67309856415
1609060340460320916,28711,1609060340460320916,-0.0101101743057,0.04185795784,0.370298296213,0.927914321423,0.0162678360939,0.00379629642703,-0.00867222063243,0.837956130505,-0.382556259632,-9.61572265625
1609060340460354884,28712,1609060340460354884,-0.0100863752887,0.0418625548482,0.370280057192,0.927921652794,0.0193677991629,0.000935037445743,-0.0108841173351,0.819551050663,-0.326798170805,-9.56812763214
1609060340465435463,28713,1609060340465435463,-0.0100735835731,0.0418719910085,0.370264589787,0.927927553654,0.0208516884595,0.00430278852582,-0.0113137913868,0.814813494682,-0.263771861792,-9.66223430634
1609060340465460616,28714,1609060340465460616,-0.0100489715114,0.0418796613812,0.370248943567,0.927933692932,0.0221657473594,0.00526979239658,-0.0116062210873,0.803903222084,-0.240733608603,-9.6267414093
1609060340470602672,28715,1609060340470602672,-0.0100247226655,0.0418869256973,0.370229870081,0.927941203117,0.0261650308967,0.00275706290267,-0.0130150783807,0.841048955917,-0.254145681858,-9.60844230652
1609060340471340213,28716,1609060340471340213,-0.010004744865,0.041902448982,0.370212286711,0.927947759628,0.0259126927704,0.00594811141491,-0.013843877241,0.831441044807,-0.193024903536,-9.66356563568
1609060340476420665,28717,1609060340476420665,-0.00998674985021,0.0419082269073,0.370195835829,0.927954256535,0.0233213119209,0.00632235081866,-0.0128220785409,0.840421319008,-0.124486267567,-9.5910282135
1609060340476439240,28718,1609060340476439240,-0.00996643677354,0.0419204644859,0.370178073645,0.927960991859,0.0245982278138,0.0041989935562,-0.0119868200272,0.880941569805,-0.111380554736,-9.63611030579
1609060340481509689,28719,1609060340481509689,-0.00994792301208,0.0419373400509,0.370160609484,0.927967369556,0.026451388374,0.00825096480548,-0.0122997127473,0.842844307423,2.19885259867e-05,-9.63821029663
1609060340481526158,28721,1609060340481526158,-0.00992144830525,0.0419565476477,0.370136111975,0.927976548672,0.0218879636377,0.0055912649259,-0.00783113297075,0.85553753376,0.00695526786149,-9.58429718018
1609060340486600028,28722,1609060340486600028,-0.00991671625525,0.0419671684504,0.370124310255,0.927980840206,0.0196975711733,0.00831542350352,-0.00682959705591,0.838301837444,0.0411560162902,-9.55075645447
1609060340486621909,28723,1609060340486621909,-0.00990807078779,0.0419677719474,0.370114326477,0.927984893322,0.0159382149577,0.00431449711323,-0.00618950743228,0.87225073576,0.0553360544145,-9.52159976959
1609060340491699287,28724,1609060340491699287,-0.00990892574191,0.0419742129743,0.370107412338,0.927987337112,0.0133309122175,0.00343110878021,-0.00421704910696,0.854004263878,0.113989859819,-9.61406803131
1609060340491721878,28725,1609060340491721878,-0.00990646798164,0.0419828854501,0.370104074478,0.927988350391,0.0121055487543,0.00736633688211,-0.00137649453245,0.822282135487,0.13886860013,-9.66624641418
1609060340496824487,28726,1609060340496824487,-0.00990949012339,0.0419813767076,0.370095670223,0.927991688251,0.0101158171892,0.00510957976803,0.000689689884894,0.846507608891,0.133480757475,-9.58858680725
1609060340496841312,28727,1609060340496841312,-0.00991615653038,0.041981190443,0.370101034641,0.927989542484,0.00525884423405,0.00319200428203,0.00421283720061,0.840521752834,0.125018000603,-9.5875749588
1609060340501912899,28728,1609060340501912899,-0.0099299326539,0.0419856905937,0.37009832263,0.92799025774,0.00198766193353,0.00691387895495,0.00656067114323,0.839388370514,0.156075417995,-9.57641506195
1609060340501930084,28729,1609060340501930084,-0.00993337668478,0.0419755019248,0.370107352734,0.927987098694,0.00164217443671,0.00272997934371,0.00805914308876,0.807083308697,0.131640031934,-9.55494308472
1609060340507006739,28730,1609060340507006739,-0.00995419546962,0.0419786907732,0.370119303465,0.927981853485,-0.00102031533606,0.00343455374241,0.0103008970618,0.778497636318,0.100245118141,-9.61847877502
1609060340507024651,28731,1609060340507024651,-0.00996778998524,0.0419752635062,0.370134115219,0.927976071835,-0.00390022853389,0.00746191199869,0.0127125466242,0.795267641544,0.0937410071492,-9.58762454987
1609060340512098126,28732,1609060340512098126,-0.00998598337173,0.0419660657644,0.370150536299,0.927969694138,-0.00478711584583,0.0025900544133,0.01453220658,0.798913240433,0.0733911022544,-9.55141735077
1609060340512116085,28733,1609060340512116085,-0.0100027984008,0.0419648140669,0.370166748762,0.927963137627,-0.00568628683686,0.00388286495581,0.0151298437268,0.806911706924,0.0234695933759,-9.6537361145
1609060340517195522,28734,1609060340517195522,-0.0100263990462,0.0419602394104,0.370170980692,0.927961409092,-0.00787628162652,0.00669503165409,0.0164662972093,0.813723564148,-0.0137894693762,-9.5822687149
1609060340517217312,28735,1609060340517217312,-0.0100439637899,0.0419470109046,0.37019059062,0.927953958511,-0.00998896546662,0.0023607222829,0.0177953857929,0.82487654686,-0.018616784364,-9.45927524567
1609060340522363731,28736,1609060340522363731,-0.0100627625361,0.0419415533543,0.370194166899,0.927952587605,-0.00866772979498,0.00114923052024,0.017570964992,0.804395675659,-0.106260836124,-9.5516910553
1609060340522456649,28737,1609060340522456649,-0.0100817158818,0.0419306084514,0.370210170746,0.927946507931,-0.00877880584449,0.00219309795648,0.016012173146,0.810470342636,-0.133809089661,-9.52470779419
1609060340527540330,28738,1609060340527540330,-0.010096333921,0.0419168844819,0.370218276978,0.927943706512,-0.0101380515844,-0.000407306768466,0.0153590710834,0.821382522583,-0.174386829138,-9.52501487732
1609060340527561081,28739,1609060340527561081,-0.0101149166003,0.0419073402882,0.370233893394,0.927937746048,-0.00978617463261,5.69654512219e-05,0.0152135109529,0.824749469757,-0.170242577791,-9.59798049927
1609060340532631701,28740,1609060340532631701,-0.0101268785074,0.041901640594,0.370238900185,0.927935838699,-0.00805093348026,0.00280301156454,0.0139722945169,0.820636153221,-0.21423740685,-9.60868930817
1609060340532647883,28741,1609060340532647883,-0.0101394029334,0.0418849885464,0.370250821114,0.927931725979,-0.00678486563265,-0.000746130710468,0.0124013330787,0.823292374611,-0.300283491611,-9.5886888504
1609060340537769640,28742,1609060340537769640,-0.0101429419592,0.041877720505,0.370243757963,0.92793482542,-0.00551667436957,-0.00176821835339,0.0102583728731,0.813320815563,-0.344345152378,-9.53695869446
1609060340537834190,28743,1609060340537834190,-0.0101520335302,0.0418722778559,0.370250374079,0.927932322025,-0.00248724548146,0.00187921151519,0.00815567560494,0.807297945023,-0.392956614494,-9.58898830414
1609060340542908026,28744,1609060340542908026,-0.0101487282664,0.041861910373,0.370237648487,0.927937924862,-0.000260944681941,-0.000221967347898,0.00579953659326,0.802737832069,-0.370096474886,-9.5554227829
1609060340542920852,28745,1609060340542920852,-0.0101543636993,0.0418547950685,0.370242297649,0.927936315536,0.000810341676697,-0.00136392016429,0.00497914804146,0.780916392803,-0.393179953098,-9.60054111481
1609060340547988983,28746,1609060340547988983,-0.0101491138339,0.041852530092,0.370245337486,0.927935183048,0.00330868689343,0.00139654846862,0.00245834724046,0.809464395046,-0.401897937059,-9.6457529068
1609060340548001221,28747,1609060340548001221,-0.0101454788819,0.0418496802449,0.370241671801,0.927936792374,0.00753325037658,0.0015865736641,-0.000923343759496,0.791276216507,-0.371966511011,-9.64902305603
1609060340553421275,28748,1609060340553421275,-0.0101329851896,0.0418489761651,0.370241254568,0.927937209606,0.0105082858354,0.00106575083919,-0.00230213114992,0.813289940357,-0.40116506815,-9.69650936127
1609060340553442326,28749,1609060340553442326,-0.010125878267,0.0418516919017,0.370231598616,0.927940964699,0.0127269010991,0.00260862102732,-0.00475690327585,0.815646052361,-0.407248944044,-9.68058490753
1609060340558517742,28750,1609060340558517742,-0.0101065905765,0.0418552607298,0.37021240592,0.927948713303,0.0156839564443,0.00311453919858,-0.00696213450283,0.815765798092,-0.375579178333,-9.6264629364
1609060340558537774,28751,1609060340558537774,-0.0100952591747,0.0418590530753,0.370200186968,0.927953541279,0.0174620486796,0.0028784670867,-0.00801743101329,0.835550129414,-0.31543430686,-9.63414955139
1609060340563608329,28752,1609060340563608329,-0.0100761493668,0.0418640486896,0.37017634511,0.927963018417,0.017621986568,0.00328376377001,-0.00998909957707,0.813475728035,-0.263167053461,-9.66620349884
1609060340563623666,28753,1609060340563623666,-0.0100575061515,0.041869584471,0.370158165693,0.927970230579,0.0207037068903,0.00283402903005,-0.0124105773866,0.852814257145,-0.277501493692,-9.64387989044
1609060340568727818,28754,1609060340568727818,-0.0100336074829,0.0418826304376,0.37014490366,0.927975177765,0.0243014488369,0.00471201725304,-0.0124348001555,0.83700221777,-0.244293689728,-9.64798259735
1609060340568783231,28755,1609060340568783231,-0.0100133810192,0.041890218854,0.370128840208,0.927981495857,0.0251539647579,0.00524592306465,-0.0114881228656,0.851500511169,-0.214602679014,-9.65132045746
1609060340573868508,28756,1609060340573868508,-0.00999651104212,0.0419029928744,0.370113253593,0.927987337112,0.0233624279499,0.00577979907393,-0.0125495968387,0.849220335484,-0.178834721446,-9.65983200073
1609060340573882140,28757,1609060340573882140,-0.00997491180897,0.0419144555926,0.370096027851,0.927993893623,0.0244654007256,0.00701570836827,-0.0129734631628,0.819085359573,-0.123062282801,-9.62487602234
1609060340578950236,28758,1609060340578950236,-0.00995498523116,0.0419215373695,0.370073616505,0.928002715111,0.0256692618132,0.00422888854519,-0.0123252617195,0.850823640823,-0.0993169024587,-9.59215736389
1609060340578962985,28759,1609060340578962985,-0.00993985310197,0.0419366881251,0.370058834553,0.928008139133,0.0237689688802,0.00656420364976,-0.0113409636542,0.846459329128,-0.0153325237334,-9.58510684967
1609060340584042987,28760,1609060340584042987,-0.00992668326944,0.0419436246157,0.370039075613,0.928015828133,0.0229806993157,0.00630988646299,-0.010164892301,0.859657645226,-0.0242738910019,-9.58063030243
1609060340584092495,28761,1609060340584092495,-0.00991212483495,0.0419519692659,0.370026707649,0.9280205369,0.0217165127397,0.00386932818219,-0.00920328870416,0.86011070013,-0.0210865661502,-9.5558347702
1609060340589166080,28762,1609060340589166080,-0.00991045404226,0.0419603697956,0.370014250278,0.928025126457,0.017630264163,0.00594551116228,-0.0069868825376,0.814834594727,0.060851726681,-9.6005153656
1609060340589185087,28763,1609060340589185087,-0.00990302953869,0.0419665239751,0.370004892349,0.928028702736,0.0146034955978,0.00619832100347,-0.00581759959459,0.839676141739,0.0752642601728,-9.58087730408
1609060340594251685,28764,1609060340594251685,-0.00990159343928,0.0419712364674,0.369996666908,0.928031742573,0.014396565035,0.00490253278986,-0.00399446766824,0.866799712181,0.116334214807,-9.54071521759
1609060340594268382,28765,1609060340594268382,-0.00989868305624,0.041976634413,0.369994580746,0.928032398224,0.0124745946378,0.00530776148662,-0.000950606656261,0.817711889744,0.123145960271,-9.56697177887
1609060340599337697,28766,1609060340599337697,-0.0099076051265,0.0419801585376,0.369995564222,0.928031742573,0.00854839477688,0.00652312766761,0.000538919703104,0.815411806107,0.119268983603,-9.53128814697
1609060340599351044,28767,1609060340599351044,-0.00991029571742,0.0419802963734,0.369999110699,0.928030192852,0.00558765558526,0.00541461352259,0.00284332269803,0.798665523529,0.119526669383,-9.56686592102
1609060340604422944,28768,1609060340604422944,-0.00992243457586,0.0419830009341,0.370007365942,0.928026676178,0.00419105496258,0.00571678951383,0.0059180110693,0.806987166405,0.110738046467,-9.57490348816
1609060340604437012,28769,1609060340604437012,-0.00993055757135,0.0419791787863,0.370015263557,0.928023576736,0.00151487544645,0.00505846226588,0.00764462212101,0.798903286457,0.0989835709333,-9.59921741486
1609060340609505962,28770,1609060340609505962,-0.00995114445686,0.0419784002006,0.370031893253,0.928016781807,-0.0021553626284,0.00505264848471,0.00961838755757,0.79753613472,0.146356999874,-9.59219455719
1609060340609527507,28772,1609060340609527507,-0.0099870916456,0.0419683791697,0.370065659285,0.928003489971,-0.00586446654052,0.00402533914894,0.0134348804131,0.786942720413,0.0946834683418,-9.57203960419
1609060340614599203,28773,1609060340614599203,-0.0100032323971,0.0419609844685,0.37008368969,0.927996337414,-0.00821338407695,0.00524838222191,0.0154483737424,0.804278373718,0.0623981654644,-9.53426933289
1609060340614612234,28774,1609060340614612234,-0.0100247021765,0.0419498458505,0.370098292828,0.927990853786,-0.00800422020257,0.00120047316886,0.0164600796998,0.834730386734,-0.00591437984258,-9.48340892792
1609060340621846008,28775,1609060340621846008,-0.0100415609777,0.0419445075095,0.370114594698,0.927984416485,-0.00792899075896,0.00206191418692,0.0156994853169,0.814118385315,-0.0610740110278,-9.54971027374
1609060340621878434,28777,1609060340621878434,-0.0100819952786,0.041922532022,0.370151102543,0.927970468998,-0.0111354654655,0.00102235854138,0.0179196298122,0.842459380627,-0.102202504873,-9.53585720062
1609060340626950100,28778,1609060340626950100,-0.0100981686264,0.0419175960124,0.370175778866,0.927960574627,-0.00839105527848,0.0023201785516,0.0165626108646,0.80160421133,-0.188421458006,-9.6497631073
1609060340626963544,28779,1609060340626963544,-0.0101149668917,0.0419099777937,0.370192706585,0.927954018116,-0.00712855160236,0.0032731378451,0.0160970315337,0.806607782841,-0.178678154945,-9.59616851807
1609060340632033565,28780,1609060340632033565,-0.0101257283241,0.0418978333473,0.370217263699,0.927944660187,-0.00773850083351,0.00102259032428,0.0159091278911,0.837071657181,-0.253295183182,-9.4937286377
1609060340632046830,28781,1609060340632046830,-0.0101415598765,0.0418904200196,0.370228379965,0.927940428257,-0.00724272988737,0.000940693891607,0.0134471682832,0.834028244019,-0.307743787766,-9.58950233459
1609060340637204229,28782,1609060340637204229,-0.0101432884112,0.0418814755976,0.370230406523,0.927939891815,-0.00487758917734,0.00117329705972,0.0108025632799,0.808279037476,-0.301209926605,-9.60527229309
1609060340637306643,28783,1609060340637306643,-0.0101511543617,0.04186937958,0.370239317417,0.927936792374,-0.00257232156582,-0.00175570929423,0.00991202145815,0.853321552277,-0.370632380247,-9.54634571075
1609060340642401028,28784,1609060340642401028,-0.0101514672861,0.0418657809496,0.370236158371,0.927938342094,-0.00121071340982,-0.000111514469609,0.0077349357307,0.813879847527,-0.367451161146,-9.70913219452
1609060340642421829,28785,1609060340642421829,-0.0101563995704,0.0418598540127,0.370236992836,0.927938222885,0.000939054822084,0.00172048271634,0.0043633999303,0.781535327435,-0.394025623798,-9.69525909424
1609060340647493339,28786,1609060340647493339,-0.0101504418999,0.0418539866805,0.370235174894,0.927939236164,0.00336766755208,0.000325393746607,0.00202147802338,0.819956421852,-0.45027884841,-9.65690231323
1609060340647504904,28787,1609060340647504904,-0.0101518444717,0.041854634881,0.37023037672,0.927941143513,0.00575276277959,0.00223955581896,-0.000253184873145,0.780126750469,-0.40382874012,-9.67033290863
1609060340652632806,28788,1609060340652632806,-0.0101357651874,0.0418481379747,0.370221555233,0.927945017815,0.00954088196158,0.000480124494061,-0.00311353662983,0.783404350281,-0.424418747425,-9.60698127747
1609060340652703808,28789,1609060340652703808,-0.0101273180917,0.0418475866318,0.370211988688,0.92794907093,0.0131049510092,-0.0014396070037,-0.00505886645988,0.800139665604,-0.435504555702,-9.62180519104
1609060340657786849,28790,1609060340657786849,-0.010115054436,0.0418596565723,0.370207756758,0.927950322628,0.0145542137325,0.00591060845181,-0.00597029086202,0.753978252411,-0.352757155895,-9.69808006287
1609060340657800290,28791,1609060340657800290,-0.0100997705013,0.0418559163809,0.370197057724,0.927954912186,0.0166434310377,0.00370901171118,-0.00636125681922,0.812396526337,-0.300548136234,-9.57929992676
1609060340662865936,28792,1609060340662865936,-0.0100753176957,0.0418604165316,0.370186626911,0.927959144115,0.0205082558095,-0.00117440300528,-0.00888751447201,0.811112046242,-0.307103037834,-9.59929847717
1609060340662878414,28793,1609060340662878414,-0.0100609883666,0.0418709106743,0.370169520378,0.927965641022,0.0223770029843,0.00424457201734,-0.0115062426776,0.811406254768,-0.309449344873,-9.71881961823
1609060340667943291,28794,1609060340667943291,-0.0100406128913,0.0418775528669,0.370157420635,0.927970349789,0.0211029797792,0.00579968094826,-0.0125724980608,0.828408718109,-0.22939479351,-9.59690093994
1609060340667957041,28795,1609060340667957041,-0.0100172581151,0.0418835356832,0.37013861537,0.927977859974,0.0238051805645,0.00277865747921,-0.0132306898013,0.848610520363,-0.222550094128,-9.60860443115
1609060340673028735,28796,1609060340673028735,-0.00999648775905,0.0419004485011,0.370124220848,0.927983045578,0.0266343280673,0.00563371647149,-0.0140270646662,0.846594929695,-0.180220589042,-9.67669296265
1609060340673045369,28797,1609060340673045369,-0.00997883826494,0.0419082716107,0.370107114315,0.927989721298,0.0247692577541,0.0071668131277,-0.0133762927726,0.810953319073,-0.107572883368,-9.60430622101
1609060340678113044,28798,1609060340678113044,-0.00995807629079,0.0419126264751,0.370092362165,0.927995622158,0.0238353572786,0.00226749363355,-0.0121724121273,0.86883109808,-0.0848686173558,-9.53494358063
1609060340678128377,28799,1609060340678128377,-0.00994096137583,0.0419269800186,0.370076060295,0.928001642227,0.024587938562,0.0047794599086,-0.0117548303679,0.85231500864,0.00570804253221,-9.60645771027
1609060340683198282,28800,1609060340683198282,-0.00993220414966,0.041936788708,0.370065182447,0.928005635738,0.022370306775,0.00752489641309,-0.0101047493517,0.865989685059,0.0161490142345,-9.61694908142
1609060340683213638,28801,1609060340683213638,-0.00991818588227,0.0419445149601,0.370054006577,0.928009867668,0.020146207884,0.0055319191888,-0.00801032129675,0.874940812588,-0.0147174205631,-9.59142017365
1609060340688281634,28802,1609060340688281634,-0.00991037022322,0.0419510118663,0.370039492846,0.928015470505,0.0190643146634,0.00432277144864,-0.00708111701533,0.851467728615,0.0407841019332,-9.59829425812
1609060340688297071,28803,1609060340688297071,-0.00990307331085,0.0419590696692,0.370031297207,0.928018450737,0.0165637768805,0.00545085920021,-0.00590301817283,0.846669793129,0.0962157398462,-9.61106872559
1609060340693361747,28804,1609060340693361747,-0.00990351010114,0.0419589243829,0.370021849871,0.928022265434,0.0131916040555,0.00408932939172,-0.00388078973629,0.853203296661,0.109145887196,-9.60214042664
1609060340693373357,28805,1609060340693373357,-0.0099008763209,0.0419657081366,0.370019853115,0.928022742271,0.0111579075456,0.00432287016883,-0.00129383872263,0.851141810417,0.0980298519135,-9.57742404938
1609060340698436627,28806,1609060340698436627,-0.00990986824036,0.0419713780284,0.370020270348,0.92802220583,0.00877285562456,0.00772905116901,0.00135674828198,0.830913543701,0.105007752776,-9.63291358948
1609060340698445706,28807,1609060340698445706,-0.00991374161094,0.0419700331986,0.370022952557,0.928021192551,0.00506968982518,0.00568270636722,0.00318898144178,0.841127455235,0.141968697309,-9.56764316559
1609060340715210936,28808,1609060340715210936,-0.00992547534406,0.0419671423733,0.370031714439,0.928017675877,0.00266924151219,0.00298899621703,0.00664946064353,0.82586067915,0.171860352159,-9.52454662323
1609060340715271702,28814,1609060340715271702,-0.0100241098553,0.0419403649867,0.370124489069,0.927980840206,-0.00863675586879,0.00182642810978,0.0154074914753,0.802588939667,0.0102766016498,-9.50785064697
1609060340720407266,28815,1609060340720407266,-0.010042000562,0.0419339127839,0.370141595602,0.927974104881,-0.0095744272694,0.00121456384659,0.0161095261574,0.805574119091,-0.0463051311672,-9.60166931152
1609060340720498406,28816,1609060340720498406,-0.0100610312074,0.0419286116958,0.370159447193,0.927967011929,-0.00830974802375,0.00443766731769,0.0166399106383,0.806589603424,-0.108678691089,-9.642121315
1609060340725577239,28817,1609060340725577239,-0.0100790048018,0.041917681694,0.370177298784,0.927960216999,-0.00901669077575,0.00278561818413,0.0169060081244,0.825342595577,-0.0967260748148,-9.51511096954
1609060340725590320,28818,1609060340725590320,-0.0100988568738,0.0419065095484,0.370198488235,0.927952051163,-0.0105623882264,0.00071428460069,0.016396522522,0.842058241367,-0.169722527266,-9.5169801712
1609060340730654217,28819,1609060340730654217,-0.0101147787645,0.0418971069157,0.370213836432,0.927946209908,-0.00952863413841,0.000970977765974,0.0153684997931,0.841039538383,-0.173152983189,-9.60007762909
1609060340730663677,28820,1609060340730663677,-0.0101266661659,0.0418923944235,0.370233654976,0.92793828249,-0.00648492202163,0.00255879759789,0.0149186309427,0.834729194641,-0.22046674788,-9.56463050842
1609060340735764684,28821,1609060340735764684,-0.0101409927011,0.0418789573014,0.370245039463,0.927934288979,-0.00641591148451,0.000810259371065,0.0131921637803,0.841797411442,-0.292021095753,-9.55275249481
1609060340735887675,28822,1609060340735887675,-0.0101475212723,0.041873883456,0.370254158974,0.9279307127,-0.00599141744897,0.000585285539273,0.0112453708425,0.79990786314,-0.320255756378,-9.60114574432
1609060340740994156,28823,1609060340740994156,-0.0101562505588,0.0418631955981,0.370261669159,0.927928090096,-0.00343547272496,0.000769473030232,0.00968319084495,0.809166669846,-0.357100248337,-9.56699848175
1609060340741018275,28824,1609060340741018275,-0.0101540898904,0.0418564863503,0.370263278484,0.927927911282,-0.000575117242988,-0.000742543081287,0.00651049800217,0.808035671711,-0.367892980576,-9.60669612885
1609060340746092328,28825,1609060340746092328,-0.0101586086676,0.041856508702,0.370265871286,0.927926778793,0.00266127055511,0.00260333623737,0.00458373967558,0.795838534832,-0.425175815821,-9.68455696106
1609060340746111679,28826,1609060340746111679,-0.0101489126682,0.0418498143554,0.370263546705,0.9279281497,0.00569421518594,0.0015442261938,0.00163155095652,0.852625250816,-0.444342374802,-9.62668323517
1609060340751178064,28827,1609060340751178064,-0.0101472195238,0.0418483912945,0.370260119438,0.927929580212,0.00789734907448,6.84436527081e-05,-0.000895470380783,0.806352317333,-0.392090201378,-9.6100435257
1609060340751188890,28828,1609060340751188890,-0.0101379938424,0.0418491251767,0.370255351067,0.927931547165,0.00883561465889,0.00283684628084,-0.00189174246043,0.780004739761,-0.375271141529,-9.65605258942
1609060340756257828,28829,1609060340756257828,-0.0101265879348,0.0418465733528,0.370248198509,0.927934646606,0.0123367868364,0.000971298548393,-0.00334660476074,0.781660497189,-0.373383760452,-9.61860847473
1609060340756272196,28830,1609060340756272196,-0.0101104443893,0.0418536514044,0.370244979858,0.927935779095,0.0161556135863,0.00238371943124,-0.00570612121373,0.770736336708,-0.372200727463,-9.67053699493
1609060340761340944,28831,1609060340761340944,-0.0100995628163,0.0418604835868,0.370231926441,0.927940785885,0.0174622014165,0.0059330672957,-0.00814654771239,0.800414741039,-0.352460771799,-9.69923686981
